trialNum,bgColor,capacity,capWording,response,responseNum,hoverTime,rt,character,charWording,subid,sessionDuration,testingSite,experimenter,trialComments,sessionComments,run,age,gender,bilingual,languages,ethnicity1,#9be4c0,joy,feel joy,no,0,0,10788,robot,a robot,A01,6.914133333,NA,NA,NA,NA,run_01,8.666666667,f,no,NA,NA2,#64f8f4,personality,have a personality -- like when someone is shy and somebody else is silly,kinda,0.5,0,35433,robot,a robot,A01,6.914133333,NA,NA,NA,NA,run_01,8.666666667,f,no,NA,NA3,#fde096,embarrassed,feel embarrassed,no,0,0,7190,robot,a robot,A01,6.914133333,NA,NA,NA,NA,run_01,8.666666667,f,no,NA,NA4,#8cf2c3,guilt,feel guilty,kinda,0.5,0,11298,robot,a robot,A01,6.914133333,NA,NA,NA,NA,run_01,8.666666667,f,no,NA,NA5,#d0d9ae,temperature,sense temperatures,yes,1,0,7302,robot,a robot,A01,6.914133333,NA,NA,NA,NA,run_01,8.666666667,f,no,NA,NA6,#f3c5fa,intentions,make plans,yes,1,0,9818,robot,a robot,A01,6.914133333,NA,NA,NA,NA,run_01,8.666666667,f,no,NA,NA7,#84eced,pride,feel proud,no,0,0,8537,robot,a robot,A01,6.91415,NA,NA,NA,NA,run_01,8.666666667,f,no,NA,NA8,#e3df8e,recognizing,recognize somebody else,yes,1,0,9944,robot,a robot,A01,6.91415,NA,NA,NA,NA,run_01,8.666666667,f,no,NA,NA9,#c2e9f5,conscious,be aware of things,no,0,0,8225,robot,a robot,A01,6.91415,NA,NA,NA,NA,run_01,8.666666667,f,no,NA,NA10,#d2dcee,safe,feel safe,no,0,0,6591,robot,a robot,A01,6.91415,NA,NA,NA,NA,run_01,8.666666667,f,no,NA,NA11,#5ef2da,tired,feel tired,kinda,0.5,0,10038,robot,a robot,A01,6.91415,NA,NA,NA,NA,run_01,8.666666667,f,no,NA,NA12,#f2cdb9,communicating,communicate with somebody else,yes,1,0,8187,robot,a robot,A01,6.91415,NA,NA,NA,NA,run_01,8.666666667,f,no,NA,NA13,#79e3f9,self_aware,be aware of itself,no,0,6346,32889,robot,a robot,A01,6.91415,NA,NA,NA,NA,run_01,8.666666667,f,no,NA,NA14,#f3d0d9,depth,sense whether something is close by or far away,yes,1,0,10278,robot,a robot,A01,6.91415,NA,NA,NA,NA,run_01,8.666666667,f,no,NA,NA15,#d0e0c8,beliefs,have beliefs -- like when you think something is true,kinda,0.5,0,12167,robot,a robot,A01,6.91415,NA,NA,NA,NA,run_01,8.666666667,f,no,NA,NA16,#aceab4,pain,feel pain,no,0,0,7275,robot,a robot,A01,6.91415,NA,NA,NA,NA,run_01,8.666666667,f,no,NA,NA17,#e3dbc8,goal,have goals -- like when you're working hard to do something or make something happen,yes,1,0,10884,robot,a robot,A01,6.91415,NA,NA,NA,NA,run_01,8.666666667,f,no,NA,NA18,#fddbd0,emo_recog,understand how somebody else is feeling,yes,1,0,8820,robot,a robot,A01,6.91415,NA,NA,NA,NA,run_01,8.666666667,f,no,NA,NA19,#cae5a1,thoughts,have thoughts,no,0,0,7398,robot,a robot,A01,6.91415,NA,NA,NA,NA,run_01,8.666666667,f,no,NA,NA20,#bfd6fa,odors,smell things,no,0,0,6407,robot,a robot,A01,6.91415,NA,NA,NA,NA,run_01,8.666666667,f,no,NA,NA21,#d1e48e,nauseated,feel sick -- like when you feel like you might throw up,no,0,0,7483,robot,a robot,A01,6.91415,NA,NA,NA,NA,run_01,8.666666667,f,no,NA,NA22,#f0d27e,reasoning,figure out how to do things,yes,1,0,8602,robot,a robot,A01,6.91415,NA,NA,NA,NA,run_01,8.666666667,f,no,NA,NA23,#97eca5,sounds,hear sounds,yes,1,0,7208,robot,a robot,A01,6.91415,NA,NA,NA,NA,run_01,8.666666667,f,no,NA,NA24,#bae6c8,angry,get angry,no,0,0,6433,robot,a robot,A01,6.91415,NA,NA,NA,NA,run_01,8.666666667,f,no,NA,NA25,#f2e1bc,remembering,remember things,yes,1,0,6813,robot,a robot,A01,6.91415,NA,NA,NA,NA,run_01,8.666666667,f,no,NA,NA26,#b5eaa1,calm,feel calm,no,0,0,8781,robot,a robot,A01,6.91415,NA,NA,NA,NA,run_01,8.666666667,f,no,NA,NA27,#3eeaef,free_will,decide what to do,kinda,0.5,0,12078,robot,a robot,A01,6.91415,NA,NA,NA,NA,run_01,8.666666667,f,no,NA,NA28,#a9e7e4,fear,feel scared,no,0,0,7369,robot,a robot,A01,6.91415,NA,NA,NA,NA,run_01,8.666666667,f,no,NA,NA29,#fdcc93,computations,do math,yes,1,0,7033,robot,a robot,A01,6.91415,NA,NA,NA,NA,run_01,8.666666667,f,no,NA,NA30,#bce98d,love,feel love,no,0,0,5916,robot,a robot,A01,6.91415,NA,NA,NA,NA,run_01,8.666666667,f,no,NA,NA31,#d5d0fa,hungry,get hungry,no,0,0,5037,robot,a robot,A01,6.91415,NA,NA,NA,NA,run_01,8.666666667,f,no,NA,NA32,#cde8e2,morality,know what's nice and what's mean,yes,1,0,8718,robot,a robot,A01,6.91415,NA,NA,NA,NA,run_01,8.666666667,f,no,NA,NA33,#e3d3af,depressed,feel sad,no,0,0,7126,robot,a robot,A01,6.91415,NA,NA,NA,NA,run_01,8.666666667,f,no,NA,NA34,#ead1ec,disrespected,get hurt feelings,no,0,0,5987,robot,a robot,A01,6.91415,NA,NA,NA,NA,run_01,8.666666667,f,no,NA,NA35,#f0d9a2,pleasure,feel pleasure -- like when something feels really good,kinda,0.5,0,10402,robot,a robot,A01,6.91415,NA,NA,NA,NA,run_01,8.666666667,f,no,NA,NA36,#c3e5b5,desires,have desires -- like when you really want something,kinda,0.5,1841,9640,robot,a robot,A01,6.91415,NA,NA,NA,NA,run_01,8.666666667,f,no,NA,NA37,#a7dcf9,self_restraint,have self-control -- like when you stop yourself from doing something you shouldn't do,yes,1,0,10132,robot,a robot,A01,6.91415,NA,NA,NA,NA,run_01,8.666666667,f,no,NA,NA38,#dee7bc,choices,make choices,yes,1,0,8096,robot,a robot,A01,6.91415,NA,NA,NA,NA,run_01,8.666666667,f,no,NA,NA39,#dedfa2,happy,feel happy,no,0,0,6282,robot,a robot,A01,6.91415,NA,NA,NA,NA,run_01,8.666666667,f,no,NA,NA40,#a9f2ce,seeing,see things,yes,1,0,6673,robot,a robot,A01,6.91415,NA,NA,NA,NA,run_01,8.666666667,f,no,NA,NA1,#e3df8e,choices,make choices,no,0,0,8625,beetle,a beetle,A02,6.86615,NA,NA,NA,NA,run_01,8.525,f,yes,"spanish, english",hispanic or latino/a2,#f2e1bc,disrespected,get hurt feelings,kinda,0.5,0,15822,beetle,a beetle,A02,6.86615,NA,NA,NA,NA,run_01,8.525,f,yes,"spanish, english",hispanic or latino/a3,#79e3f9,depth,sense whether something is close by or far away,kinda,0.5,0,9729,beetle,a beetle,A02,6.866166667,NA,NA,NA,NA,run_01,8.525,f,yes,"spanish, english",hispanic or latino/a4,#cae5a1,computations,do math,no,0,0,6464,beetle,a beetle,A02,6.866166667,NA,NA,NA,NA,run_01,8.525,f,yes,"spanish, english",hispanic or latino/a5,#d5d0fa,self_restraint,have self-control -- like when you stop yourself from doing something you shouldn't do,no,0,0,11763,beetle,a beetle,A02,6.866166667,NA,NA,NA,NA,run_01,8.525,f,yes,"spanish, english",hispanic or latino/a6,#f2cdb9,odors,smell things,yes,1,0,7340,beetle,a beetle,A02,6.866166667,NA,NA,NA,NA,run_01,8.525,f,yes,"spanish, english",hispanic or latino/a7,#5ef2da,guilt,feel guilty,no,0,0,6952,beetle,a beetle,A02,6.866166667,NA,NA,NA,NA,run_01,8.525,f,yes,"spanish, english",hispanic or latino/a8,#3eeaef,thoughts,have thoughts,no,0,0,7998,beetle,a beetle,A02,6.866166667,NA,NA,NA,NA,run_01,8.525,f,yes,"spanish, english",hispanic or latino/a9,#ead1ec,embarrassed,feel embarrassed,no,0,0,8309,beetle,a beetle,A02,6.866166667,NA,NA,NA,NA,run_01,8.525,f,yes,"spanish, english",hispanic or latino/a10,#9be4c0,beliefs,have beliefs -- like when you think something is true,no,0,0,10217,beetle,a beetle,A02,6.866166667,NA,NA,NA,NA,run_01,8.525,f,yes,"spanish, english",hispanic or latino/a11,#a7dcf9,tired,feel tired,kinda,0.5,0,6862,beetle,a beetle,A02,6.866166667,NA,NA,NA,NA,run_01,8.525,f,yes,"spanish, english",hispanic or latino/a12,#dedfa2,desires,have desires -- like when you really want something,kinda,0.5,0,11607,beetle,a beetle,A02,6.866166667,NA,NA,NA,NA,run_01,8.525,f,yes,"spanish, english",hispanic or latino/a13,#aceab4,seeing,see things,yes,1,0,7902,beetle,a beetle,A02,6.866166667,NA,NA,NA,NA,run_01,8.525,f,yes,"spanish, english",hispanic or latino/a14,#97eca5,personality,have a personality -- like when someone is shy and somebody else is silly,no,0,0,11206,beetle,a beetle,A02,6.866166667,NA,NA,NA,NA,run_01,8.525,f,yes,"spanish, english",hispanic or latino/a15,#bce98d,hungry,get hungry,yes,1,0,6918,beetle,a beetle,A02,6.866166667,NA,NA,NA,NA,run_01,8.525,f,yes,"spanish, english",hispanic or latino/a16,#a9f2ce,joy,feel joy,no,0,0,6243,beetle,a beetle,A02,6.866166667,NA,NA,NA,NA,run_01,8.525,f,yes,"spanish, english",hispanic or latino/a17,#64f8f4,goal,have goals -- like when you're working hard to do something or make something happen,no,0,0,14168,beetle,a beetle,A02,6.866183333,NA,NA,NA,NA,run_01,8.525,f,yes,"spanish, english",hispanic or latino/a18,#c3e5b5,temperature,sense temperatures,kinda,0.5,0,8541,beetle,a beetle,A02,6.866183333,NA,NA,NA,NA,run_01,8.525,f,yes,"spanish, english",hispanic or latino/a19,#d0d9ae,angry,get angry,no,0,0,6851,beetle,a beetle,A02,6.866183333,NA,NA,NA,NA,run_01,8.525,f,yes,"spanish, english",hispanic or latino/a20,#84eced,communicating,communicate with somebody else,yes,1,0,8205,beetle,a beetle,A02,6.866183333,NA,NA,NA,NA,run_01,8.525,f,yes,"spanish, english",hispanic or latino/a21,#e3d3af,recognizing,recognize somebody else,yes,1,0,13229,beetle,a beetle,A02,6.866183333,NA,NA,NA,NA,run_01,8.525,f,yes,"spanish, english",hispanic or latino/a22,#f3d0d9,morality,know what's nice and what's mean,yes,1,220,11598,beetle,a beetle,A02,6.866183333,NA,NA,NA,NA,run_01,8.525,f,yes,"spanish, english",hispanic or latino/a23,#94ebda,safe,feel safe,yes,1,0,7549,beetle,a beetle,A02,6.866183333,NA,NA,NA,NA,run_01,8.525,f,yes,"spanish, english",hispanic or latino/a24,#f3c5fa,emo_recog,understand how somebody else is feeling,no,0,0,8086,beetle,a beetle,A02,6.866183333,NA,NA,NA,NA,run_01,8.525,f,yes,"spanish, english",hispanic or latino/a25,#d2dcee,happy,feel happy,no,0,0,8191,beetle,a beetle,A02,6.866183333,NA,NA,NA,NA,run_01,8.525,f,yes,"spanish, english",hispanic or latino/a26,#b5eaa1,intentions,make plans,kinda,0.5,0,7876,beetle,a beetle,A02,6.866183333,NA,NA,NA,NA,run_01,8.525,f,yes,"spanish, english",hispanic or latino/a27,#b4dbe7,nauseated,feel sick -- like when you feel like you might throw up,kinda,0.5,0,8962,beetle,a beetle,A02,6.866183333,NA,NA,NA,NA,run_01,8.525,f,yes,"spanish, english",hispanic or latino/a28,#d0e0c8,reasoning,figure out how to do things,yes,1,0,7111,beetle,a beetle,A02,6.866183333,NA,NA,NA,NA,run_01,8.525,f,yes,"spanish, english",hispanic or latino/a29,#bae6c8,remembering,remember things,kinda,0.5,0,8157,beetle,a beetle,A02,6.866183333,NA,NA,NA,NA,run_01,8.525,f,yes,"spanish, english",hispanic or latino/a30,#a9e7e4,pain,feel pain,yes,1,0,6653,beetle,a beetle,A02,6.866183333,NA,NA,NA,NA,run_01,8.525,f,yes,"spanish, english",hispanic or latino/a31,#cde8e2,pride,feel proud,no,0,0,6604,beetle,a beetle,A02,6.866183333,NA,NA,NA,NA,run_01,8.525,f,yes,"spanish, english",hispanic or latino/a32,#c2e9f5,calm,feel calm,yes,1,0,6132,beetle,a beetle,A02,6.866183333,NA,NA,NA,NA,run_01,8.525,f,yes,"spanish, english",hispanic or latino/a33,#f0d9a2,fear,feel scared,yes,1,0,6265,beetle,a beetle,A02,6.866183333,NA,NA,NA,NA,run_01,8.525,f,yes,"spanish, english",hispanic or latino/a34,#fde096,self_aware,be aware of itself,kinda,0.5,9548,34256,beetle,a beetle,A02,6.866183333,NA,NA,NA,NA,run_01,8.525,f,yes,"spanish, english",hispanic or latino/a35,#dee7bc,depressed,feel sad,no,0,0,10517,beetle,a beetle,A02,6.866183333,NA,NA,NA,NA,run_01,8.525,f,yes,"spanish, english",hispanic or latino/a36,#d1e48e,free_will,decide what to do,kinda,0.5,0,8235,beetle,a beetle,A02,6.866183333,NA,NA,NA,NA,run_01,8.525,f,yes,"spanish, english",hispanic or latino/a37,#e3dbc8,love,feel love,kinda,0.5,0,5967,beetle,a beetle,A02,6.866183333,NA,NA,NA,NA,run_01,8.525,f,yes,"spanish, english",hispanic or latino/a38,#f0d27e,conscious,be aware of things,kinda,0.5,8781,17882,beetle,a beetle,A02,6.866183333,NA,NA,NA,NA,run_01,8.525,f,yes,"spanish, english",hispanic or latino/a39,#8cf2c3,pleasure,feel pleasure -- like when something feels really good,kinda,0.5,0,10619,beetle,a beetle,A02,6.866183333,NA,NA,NA,NA,run_01,8.525,f,yes,"spanish, english",hispanic or latino/a40,#fddbd0,sounds,hear sounds,yes,1,0,6951,beetle,a beetle,A02,6.866183333,NA,NA,NA,NA,run_01,8.525,f,yes,"spanish, english",hispanic or latino/a1,#f2cdb9,free_will,decide what to do,kinda,0.5,0,12320,beetle,a beetle,A03,7.361983333,NA,NA,,NA,run_01,8.383333333,f,yes,"english, spanish, german","white, caucasian, or european american"2,#bfd6fa,temperature,sense temperatures,no,0,8504,19475,beetle,a beetle,A03,7.362,NA,NA,,NA,run_01,8.383333333,f,yes,"english, spanish, german","white, caucasian, or european american"3,#d0d9ae,communicating,communicate with somebody else,no,0,0,16935,beetle,a beetle,A03,7.362,NA,NA,,NA,run_01,8.383333333,f,yes,"english, spanish, german","white, caucasian, or european american"4,#f3c5fa,nauseated,feel sick -- like when you feel like you might throw up,yes,1,0,12304,beetle,a beetle,A03,7.362,NA,NA,,NA,run_01,8.383333333,f,yes,"english, spanish, german","white, caucasian, or european american"5,#84eced,beliefs,have beliefs -- like when you think something is true,no,0,0,10344,beetle,a beetle,A03,7.362,NA,NA,,NA,run_01,8.383333333,f,yes,"english, spanish, german","white, caucasian, or european american"6,#cde8e2,computations,do math,no,0,0,7597,beetle,a beetle,A03,7.362,NA,NA,,NA,run_01,8.383333333,f,yes,"english, spanish, german","white, caucasian, or european american"7,#f0d27e,thoughts,have thoughts,kinda,0.5,218,8556,beetle,a beetle,A03,7.362,NA,NA,,NA,run_01,8.383333333,f,yes,"english, spanish, german","white, caucasian, or european american"8,#f2e1bc,desires,have desires -- like when you really want something,yes,1,0,12451,beetle,a beetle,A03,7.362,NA,NA,,NA,run_01,8.383333333,f,yes,"english, spanish, german","white, caucasian, or european american"9,#e3dbc8,personality,have a personality -- like when someone is shy and somebody else is silly,no,0,0,11251,beetle,a beetle,A03,7.362,NA,NA,,NA,run_01,8.383333333,f,yes,"english, spanish, german","white, caucasian, or european american"10,#3eeaef,embarrassed,feel embarrassed,kinda,0.5,0,10341,beetle,a beetle,A03,7.362,NA,NA,,NA,run_01,8.383333333,f,yes,"english, spanish, german","white, caucasian, or european american"11,#ead1ec,pleasure,feel pleasure -- like when something feels really good,yes,1,0,8599,beetle,a beetle,A03,7.362,NA,NA,,NA,run_01,8.383333333,f,yes,"english, spanish, german","white, caucasian, or european american"12,#79e3f9,hungry,get hungry,yes,1,0,6797,beetle,a beetle,A03,7.362,NA,NA,,NA,run_01,8.383333333,f,yes,"english, spanish, german","white, caucasian, or european american"13,#d0e0c8,sounds,hear sounds,no,0,0,7980,beetle,a beetle,A03,7.362016667,NA,NA,,NA,run_01,8.383333333,f,yes,"english, spanish, german","white, caucasian, or european american"14,#bce98d,seeing,see things,yes,1,0,7812,beetle,a beetle,A03,7.362016667,NA,NA,,NA,run_01,8.383333333,f,yes,"english, spanish, german","white, caucasian, or european american"15,#b5eaa1,self_restraint,have self-control -- like when you stop yourself from doing something you shouldn't do,yes,1,0,18401,beetle,a beetle,A03,7.362016667,NA,NA,,NA,run_01,8.383333333,f,yes,"english, spanish, german","white, caucasian, or european american"16,#5ef2da,morality,know what's nice and what's mean,no,0,0,9344,beetle,a beetle,A03,7.362016667,NA,NA,,NA,run_01,8.383333333,f,yes,"english, spanish, german","white, caucasian, or european american"17,#94ebda,odors,smell things,no,0,0,7388,beetle,a beetle,A03,7.362016667,NA,NA,,NA,run_01,8.383333333,f,yes,"english, spanish, german","white, caucasian, or european american"18,#fddbd0,recognizing,recognize somebody else,no,NA,0,205,beetle,a beetle,A03,7.362016667,NA,NA,experimenter accidentally entered response of no; question skipped,NA,run_01,8.383333333,f,yes,"english, spanish, german","white, caucasian, or european american"19,#97eca5,remembering,remember things,kinda,0.5,0,12539,beetle,a beetle,A03,7.362016667,NA,NA,,NA,run_01,8.383333333,f,yes,"english, spanish, german","white, caucasian, or european american"20,#aceab4,depressed,feel sad,yes,1,0,7531,beetle,a beetle,A03,7.362016667,NA,NA,,NA,run_01,8.383333333,f,yes,"english, spanish, german","white, caucasian, or european american"21,#e3d3af,reasoning,figure out how to do things,yes,1,0,8921,beetle,a beetle,A03,7.362016667,NA,NA,,NA,run_01,8.383333333,f,yes,"english, spanish, german","white, caucasian, or european american"22,#a7dcf9,tired,feel tired,yes,1,0,7693,beetle,a beetle,A03,7.362016667,NA,NA,,NA,run_01,8.383333333,f,yes,"english, spanish, german","white, caucasian, or european american"23,#9be4c0,choices,make choices,kinda,0.5,0,10837,beetle,a beetle,A03,7.362016667,NA,NA,,NA,run_01,8.383333333,f,yes,"english, spanish, german","white, caucasian, or european american"24,#fdcc93,joy,feel joy,yes,1,0,10614,beetle,a beetle,A03,7.362016667,NA,NA,,NA,run_01,8.383333333,f,yes,"english, spanish, german","white, caucasian, or european american"25,#dedfa2,calm,feel calm,kinda,0.5,0,8170,beetle,a beetle,A03,7.362016667,NA,NA,,NA,run_01,8.383333333,f,yes,"english, spanish, german","white, caucasian, or european american"26,#c3e5b5,intentions,make plans,no,0,0,8539,beetle,a beetle,A03,7.362016667,NA,NA,,NA,run_01,8.383333333,f,yes,"english, spanish, german","white, caucasian, or european american"27,#8cf2c3,love,feel love,yes,1,0,8458,beetle,a beetle,A03,7.362016667,NA,NA,,NA,run_01,8.383333333,f,yes,"english, spanish, german","white, caucasian, or european american"28,#e3df8e,goal,have goals -- like when you're working hard to do something or make something happen,no,0,0,12064,beetle,a beetle,A03,7.362016667,NA,NA,,NA,run_01,8.383333333,f,yes,"english, spanish, german","white, caucasian, or european american"29,#bae6c8,pain,feel pain,yes,1,0,10479,beetle,a beetle,A03,7.362016667,NA,NA,,NA,run_01,8.383333333,f,yes,"english, spanish, german","white, caucasian, or european american"30,#d5d0fa,depth,sense whether something is close by or far away,yes,1,0,10389,beetle,a beetle,A03,7.362016667,NA,NA,,NA,run_01,8.383333333,f,yes,"english, spanish, german","white, caucasian, or european american"31,#a9f2ce,angry,get angry,no,0,0,7322,beetle,a beetle,A03,7.362016667,NA,NA,,NA,run_01,8.383333333,f,yes,"english, spanish, german","white, caucasian, or european american"32,#f3d0d9,conscious,be aware of things,no,0,6958,13979,beetle,a beetle,A03,7.362016667,NA,NA,,NA,run_01,8.383333333,f,yes,"english, spanish, german","white, caucasian, or european american"33,#d1e48e,guilt,feel guilty,kinda,0.5,1857,9562,beetle,a beetle,A03,7.362033333,NA,NA,,NA,run_01,8.383333333,f,yes,"english, spanish, german","white, caucasian, or european american"34,#64f8f4,safe,feel safe,no,0,0,8572,beetle,a beetle,A03,7.362033333,NA,NA,,NA,run_01,8.383333333,f,yes,"english, spanish, german","white, caucasian, or european american"35,#cae5a1,self_aware,be aware of itself,no,0,5859,25670,beetle,a beetle,A03,7.362033333,NA,NA,,NA,run_01,8.383333333,f,yes,"english, spanish, german","white, caucasian, or european american"36,#a9e7e4,pride,feel proud,yes,1,0,14409,beetle,a beetle,A03,7.362033333,NA,NA,,NA,run_01,8.383333333,f,yes,"english, spanish, german","white, caucasian, or european american"37,#c2e9f5,fear,feel scared,yes,1,0,7581,beetle,a beetle,A03,7.362033333,NA,NA,,NA,run_01,8.383333333,f,yes,"english, spanish, german","white, caucasian, or european american"38,#d2dcee,happy,feel happy,kinda,0.5,0,8220,beetle,a beetle,A03,7.362033333,NA,NA,,NA,run_01,8.383333333,f,yes,"english, spanish, german","white, caucasian, or european american"39,#fde096,emo_recog,understand how somebody else is feeling,no,0,0,8466,beetle,a beetle,A03,7.362033333,NA,NA,,NA,run_01,8.383333333,f,yes,"english, spanish, german","white, caucasian, or european american"40,#f0d9a2,disrespected,get hurt feelings,kinda,0.5,0,6983,beetle,a beetle,A03,7.362033333,NA,NA,,NA,run_01,8.383333333,f,yes,"english, spanish, german","white, caucasian, or european american"1,#d0d9ae,emo_recog,understand how somebody else is feeling,yes,1,115013,26043,beetle,a beetle,A04,6.249983333,NA,NA,,"Let participant operate computer, missed several questions and was moving very quickly",run_01,9.702777778,m,no,enligsh,other: east asian american2,#cae5a1,free_will,decide what to do,yes,1,0,9057,beetle,a beetle,A04,6.249983333,NA,NA,,,run_01,9.702777778,m,no,enligsh,other: east asian american3,#bce98d,tired,feel tired,yes,1,4540,7208,beetle,a beetle,A04,6.249983333,NA,NA,,,run_01,9.702777778,m,no,enligsh,other: east asian american4,#8cf2c3,odors,smell things,kinda,0.5,3596,4883,beetle,a beetle,A04,6.249983333,NA,NA,,,run_01,9.702777778,m,no,enligsh,other: east asian american5,#3eeaef,pain,feel pain,yes,1,0,3719,beetle,a beetle,A04,6.249983333,NA,NA,,,run_01,9.702777778,m,no,enligsh,other: east asian american6,#d0e0c8,temperature,sense temperatures,no,0,1373,13431,beetle,a beetle,A04,6.249983333,NA,NA,,,run_01,9.702777778,m,no,enligsh,other: east asian american7,#f2e1bc,self_restraint,have self-control -- like when you stop yourself from doing something you shouldn't do,kinda,0.5,58389,12824,beetle,a beetle,A04,6.249983333,NA,NA,,,run_01,9.702777778,m,no,enligsh,other: east asian american8,#e3df8e,conscious,be aware of things,yes,1,4610,2652,beetle,a beetle,A04,6.249983333,NA,NA,,,run_01,9.702777778,m,no,enligsh,other: east asian american9,#a7dcf9,disrespected,get hurt feelings,no,0,0,3130,beetle,a beetle,A04,6.249983333,NA,NA,"Response should be ""no""; input ""kinda"" accidentally ",,run_01,9.702777778,m,no,enligsh,other: east asian american10,#f0d9a2,recognizing,recognize somebody else,kinda,0.5,378509,26800,beetle,a beetle,A04,6.25,NA,NA,,,run_01,9.702777778,m,no,enligsh,other: east asian american11,#fdcc93,nauseated,feel sick -- like when you feel like you might throw up,kinda,0.5,265557,20601,beetle,a beetle,A04,6.25,NA,NA,,,run_01,9.702777778,m,no,enligsh,other: east asian american12,#c3e5b5,remembering,remember things,kinda,0.5,0,7225,beetle,a beetle,A04,6.25,NA,NA,,,run_01,9.702777778,m,no,enligsh,other: east asian american13,#a9e7e4,guilt,feel guilty,yes,1,2,12241,beetle,a beetle,A04,6.25,NA,NA,,,run_01,9.702777778,m,no,enligsh,other: east asian american14,#c2e9f5,depressed,feel sad,no,0,1,4923,beetle,a beetle,A04,6.25,NA,NA,,,run_01,9.702777778,m,no,enligsh,other: east asian american15,#dee7bc,pleasure,feel pleasure -- like when something feels really good,kinda,0.5,1489,4111,beetle,a beetle,A04,6.25,NA,NA,,,run_01,9.702777778,m,no,enligsh,other: east asian american16,#fddbd0,hungry,get hungry,yes,1,0,4717,beetle,a beetle,A04,6.25,NA,NA,,,run_01,9.702777778,m,no,enligsh,other: east asian american17,#ead1ec,computations,do math,no,0,0,2939,beetle,a beetle,A04,6.25,NA,NA,,,run_01,9.702777778,m,no,enligsh,other: east asian american18,#f3d0d9,personality,have a personality -- like when someone is shy and somebody else is silly,no,0,0,4858,beetle,a beetle,A04,6.25,NA,NA,,,run_01,9.702777778,m,no,enligsh,other: east asian american19,#f3c5fa,seeing,see things,yes,1,1261,5956,beetle,a beetle,A04,6.25,NA,NA,,,run_01,9.702777778,m,no,enligsh,other: east asian american20,#e3d3af,choices,make choices,yes,1,5,6044,beetle,a beetle,A04,6.25,NA,NA,,,run_01,9.702777778,m,no,enligsh,other: east asian american21,#d1e48e,angry,get angry,yes,1,2,3267,beetle,a beetle,A04,6.25,NA,NA,,,run_01,9.702777778,m,no,enligsh,other: east asian american22,#f2cdb9,thoughts,have thoughts,no,0,0,3096,beetle,a beetle,A04,6.25,NA,NA,,,run_01,9.702777778,m,no,enligsh,other: east asian american23,#94ebda,calm,feel calm,skip,NA,0,200,beetle,a beetle,A04,6.25,NA,NA,Question not answered; skipped accidentally,,run_01,9.702777778,m,no,enligsh,other: east asian american24,#e3dbc8,reasoning,figure out how to do things,yes,1,0,11600,beetle,a beetle,A04,6.25,NA,NA,,,run_01,9.702777778,m,no,enligsh,other: east asian american25,#b5eaa1,goal,have goals -- like when you're working hard to do something or make something happen,yes,1,435,6922,beetle,a beetle,A04,6.25,NA,NA,,,run_01,9.702777778,m,no,enligsh,other: east asian american26,#dedfa2,self_aware,be aware of itself,kinda,0.5,0,5894,beetle,a beetle,A04,6.25,NA,NA,,,run_01,9.702777778,m,no,enligsh,other: east asian american27,#79e3f9,desires,have desires -- like when you really want something,yes,1,580,6022,beetle,a beetle,A04,6.25,NA,NA,,,run_01,9.702777778,m,no,enligsh,other: east asian american28,#a9f2ce,intentions,make plans,no,0,0,2855,beetle,a beetle,A04,6.25,NA,NA,,,run_01,9.702777778,m,no,enligsh,other: east asian american29,#d5d0fa,love,feel love,no,0,0,3062,beetle,a beetle,A04,6.25,NA,NA,,,run_01,9.702777778,m,no,enligsh,other: east asian american30,#b4dbe7,sounds,hear sounds,yes,1,0,3435,beetle,a beetle,A04,6.25,NA,NA,,,run_01,9.702777778,m,no,enligsh,other: east asian american31,#9be4c0,happy,feel happy,kinda,0.5,0,1499,beetle,a beetle,A04,6.25,NA,NA,,,run_01,9.702777778,m,no,enligsh,other: east asian american32,#d2dcee,joy,feel joy,kinda,0.5,0,7826,beetle,a beetle,A04,6.25,NA,NA,"Conflict with data sheet; answer circles is ""yes""",,run_01,9.702777778,m,no,enligsh,other: east asian american33,#64f8f4,fear,feel scared,yes,1,0,4098,beetle,a beetle,A04,6.25,NA,NA,,,run_01,9.702777778,m,no,enligsh,other: east asian american34,#cde8e2,depth,sense whether something is close by or far away,yes,1,0,4800,beetle,a beetle,A04,6.25,NA,NA,"Conflict with data sheet; answer circled is ""no""",,run_01,9.702777778,m,no,enligsh,other: east asian american35,#f0d27e,embarrassed,feel embarrassed,no,0,0,5373,beetle,a beetle,A04,6.25,NA,NA,"Conflict with data sheet; answer circled is ""yes""",,run_01,9.702777778,m,no,enligsh,other: east asian american36,#bae6c8,pride,feel proud,yes,1,0,1769,beetle,a beetle,A04,6.25,NA,NA,,,run_01,9.702777778,m,no,enligsh,other: east asian american37,#bfd6fa,communicating,communicate with somebody else,kinda,0.5,0,1223,beetle,a beetle,A04,6.25,NA,NA,"Conflict with data sheet; answer circled is ""no""",,run_01,9.702777778,m,no,enligsh,other: east asian american38,#84eced,beliefs,have beliefs -- like when you think something is true,no,0,44869,18002,beetle,a beetle,A04,6.25,NA,NA,"Conflict with data sheet; answer circled is ""yes""",,run_01,9.702777778,m,no,enligsh,other: east asian american39,#97eca5,safe,feel safe,yes,1,2,17352,beetle,a beetle,A04,6.25,NA,NA,"Conflict with data sheet; answer circled is ""no""",,run_01,9.702777778,m,no,enligsh,other: east asian american40,#5ef2da,morality,know what's nice and what's mean,skip,NA,0,973,beetle,a beetle,A04,6.250016667,NA,NA,Question not answered; skipped accidentally,,run_01,9.702777778,m,no,enligsh,other: east asian american1,#97eca5,embarrassed,feel embarrassed,kinda,0.5,0,17193,beetle,a beetle,A05,6.595016667,NA,NA,NA,"No video consent; sister in room also looked at screen and sometimes answered questions, unclear whether it affected subject's answers",run_01,8.555555556,m,yes,english,hispanic or latino/a2,#9be4c0,free_will,decide what to do,yes,1,0,9162,beetle,a beetle,A05,6.595033333,NA,NA,NA,,run_01,8.555555556,m,yes,english,hispanic or latino/a3,#b4dbe7,self_restraint,have self-control -- like when you stop yourself from doing something you shouldn't do,kinda,0.5,943,11647,beetle,a beetle,A05,6.595033333,NA,NA,NA,,run_01,8.555555556,m,yes,english,hispanic or latino/a4,#fddbd0,pleasure,feel pleasure -- like when something feels really good,yes,1,0,13358,beetle,a beetle,A05,6.59505,NA,NA,NA,,run_01,8.555555556,m,yes,english,hispanic or latino/a5,#e3dbc8,joy,feel joy,yes,1,0,10384,beetle,a beetle,A05,6.59505,NA,NA,NA,,run_01,8.555555556,m,yes,english,hispanic or latino/a6,#f2cdb9,personality,have a personality -- like when someone is shy and somebody else is silly,kinda,0.5,0,11714,beetle,a beetle,A05,6.59505,NA,NA,NA,,run_01,8.555555556,m,yes,english,hispanic or latino/a7,#fde096,angry,get angry,yes,1,0,8616,beetle,a beetle,A05,6.59505,NA,NA,NA,,run_01,8.555555556,m,yes,english,hispanic or latino/a8,#a9e7e4,reasoning,figure out how to do things,yes,1,0,9600,beetle,a beetle,A05,6.59505,NA,NA,NA,,run_01,8.555555556,m,yes,english,hispanic or latino/a9,#e3d3af,beliefs,have beliefs -- like when you think something is true,yes,1,0,9580,beetle,a beetle,A05,6.59505,NA,NA,NA,,run_01,8.555555556,m,yes,english,hispanic or latino/a10,#c2e9f5,seeing,see things,no,0,0,10764,beetle,a beetle,A05,6.59505,NA,NA,NA,,run_01,8.555555556,m,yes,english,hispanic or latino/a11,#f3d0d9,happy,feel happy,kinda,0.5,0,8653,beetle,a beetle,A05,6.59505,NA,NA,NA,,run_01,8.555555556,m,yes,english,hispanic or latino/a12,#ead1ec,goal,have goals -- like when you're working hard to do something or make something happen,kinda,0.5,1103,14472,beetle,a beetle,A05,6.59505,NA,NA,NA,,run_01,8.555555556,m,yes,english,hispanic or latino/a13,#c3e5b5,guilt,feel guilty,yes,1,0,6727,beetle,a beetle,A05,6.59505,NA,NA,NA,,run_01,8.555555556,m,yes,english,hispanic or latino/a14,#a7dcf9,desires,have desires -- like when you really want something,yes,1,0,10618,beetle,a beetle,A05,6.59505,NA,NA,NA,,run_01,8.555555556,m,yes,english,hispanic or latino/a15,#bfd6fa,computations,do math,yes,1,0,9163,beetle,a beetle,A05,6.59505,NA,NA,NA,,run_01,8.555555556,m,yes,english,hispanic or latino/a16,#e3df8e,thoughts,have thoughts,kinda,0.5,0,6557,beetle,a beetle,A05,6.59505,NA,NA,NA,,run_01,8.555555556,m,yes,english,hispanic or latino/a17,#aceab4,depressed,feel sad,yes,1,0,7423,beetle,a beetle,A05,6.59505,NA,NA,NA,,run_01,8.555555556,m,yes,english,hispanic or latino/a18,#f0d9a2,sounds,hear sounds,yes,1,0,8022,beetle,a beetle,A05,6.59505,NA,NA,NA,,run_01,8.555555556,m,yes,english,hispanic or latino/a19,#8cf2c3,recognizing,recognize somebody else,kinda,0.5,0,7638,beetle,a beetle,A05,6.59505,NA,NA,NA,,run_01,8.555555556,m,yes,english,hispanic or latino/a20,#d2dcee,safe,feel safe,yes,1,0,8764,beetle,a beetle,A05,6.59505,NA,NA,NA,,run_01,8.555555556,m,yes,english,hispanic or latino/a21,#d1e48e,nauseated,feel sick -- like when you feel like you might throw up,no,0,564,14511,beetle,a beetle,A05,6.59505,NA,NA,NA,,run_01,8.555555556,m,yes,english,hispanic or latino/a22,#bae6c8,odors,smell things,kinda,0.5,832,8208,beetle,a beetle,A05,6.59505,NA,NA,NA,,run_01,8.555555556,m,yes,english,hispanic or latino/a23,#3eeaef,disrespected,get hurt feelings,yes,1,0,6647,beetle,a beetle,A05,6.59505,NA,NA,NA,,run_01,8.555555556,m,yes,english,hispanic or latino/a24,#f2e1bc,hungry,get hungry,yes,1,282,8306,beetle,a beetle,A05,6.59505,NA,NA,NA,,run_01,8.555555556,m,yes,english,hispanic or latino/a25,#f0d27e,fear,feel scared,yes,1,0,5978,beetle,a beetle,A05,6.59505,NA,NA,NA,,run_01,8.555555556,m,yes,english,hispanic or latino/a26,#94ebda,communicating,communicate with somebody else,yes,1,0,8019,beetle,a beetle,A05,6.59505,NA,NA,NA,,run_01,8.555555556,m,yes,english,hispanic or latino/a27,#b5eaa1,pain,feel pain,yes,1,0,7793,beetle,a beetle,A05,6.59505,NA,NA,NA,,run_01,8.555555556,m,yes,english,hispanic or latino/a28,#64f8f4,self_aware,be aware of itself,yes,1,0,9430,beetle,a beetle,A05,6.59505,NA,NA,NA,,run_01,8.555555556,m,yes,english,hispanic or latino/a29,#dee7bc,emo_recog,understand how somebody else is feeling,kinda,0.5,0,8309,beetle,a beetle,A05,6.59505,NA,NA,NA,,run_01,8.555555556,m,yes,english,hispanic or latino/a30,#bce98d,depth,sense whether something is close by or far away,yes,1,0,8240,beetle,a beetle,A05,6.59505,NA,NA,NA,,run_01,8.555555556,m,yes,english,hispanic or latino/a31,#cae5a1,choices,make choices,yes,1,0,7032,beetle,a beetle,A05,6.59505,NA,NA,NA,,run_01,8.555555556,m,yes,english,hispanic or latino/a32,#d0e0c8,calm,feel calm,yes,1,0,7292,beetle,a beetle,A05,6.59505,NA,NA,NA,,run_01,8.555555556,m,yes,english,hispanic or latino/a33,#d0d9ae,intentions,make plans,kinda,0.5,0,6945,beetle,a beetle,A05,6.59505,NA,NA,NA,,run_01,8.555555556,m,yes,english,hispanic or latino/a34,#d5d0fa,remembering,remember things,yes,1,0,6205,beetle,a beetle,A05,6.59505,NA,NA,NA,,run_01,8.555555556,m,yes,english,hispanic or latino/a35,#5ef2da,tired,feel tired,yes,1,0,5125,beetle,a beetle,A05,6.59505,NA,NA,NA,,run_01,8.555555556,m,yes,english,hispanic or latino/a36,#84eced,love,feel love,yes,1,0,5357,beetle,a beetle,A05,6.59505,NA,NA,NA,,run_01,8.555555556,m,yes,english,hispanic or latino/a37,#a9f2ce,morality,know what's nice and what's mean,kinda,0.5,0,7211,beetle,a beetle,A05,6.59505,NA,NA,NA,,run_01,8.555555556,m,yes,english,hispanic or latino/a38,#dedfa2,conscious,be aware of things,yes,1,0,8984,beetle,a beetle,A05,6.59505,NA,NA,NA,,run_01,8.555555556,m,yes,english,hispanic or latino/a39,#f3c5fa,temperature,sense temperatures,yes,1,0,6185,beetle,a beetle,A05,6.59505,NA,NA,NA,,run_01,8.555555556,m,yes,english,hispanic or latino/a40,#fdcc93,pride,feel proud,yes,1,0,6550,beetle,a beetle,A05,6.59505,NA,NA,NA,,run_01,8.555555556,m,yes,english,hispanic or latino/a1,#fdcc93,seeing,see things,kinda,0.5,0,8302,robot,a robot,AY01,4.9617,jmz,ay,,NA,run_01,7.025,f,yes,english,south or southeast asian; other: asian2,#f3d0d9,calm,feel calm,no,0,0,6232,robot,a robot,AY01,4.9617,jmz,ay,,NA,run_01,7.025,f,yes,english,south or southeast asian; other: asian3,#b5eaa1,remembering,remember things,no,0,0,6056,robot,a robot,AY01,4.9617,jmz,ay,laughed,NA,run_01,7.025,f,yes,english,south or southeast asian; other: asian4,#b4dbe7,pride,feel proud,yes,1,0,5148,robot,a robot,AY01,4.9617,jmz,ay,,NA,run_01,7.025,f,yes,english,south or southeast asian; other: asian5,#cde8e2,pleasure,feel pleasure -- like when something feels really good,yes,1,0,13630,robot,a robot,AY01,4.9617,jmz,ay,,NA,run_01,7.025,f,yes,english,south or southeast asian; other: asian6,#fddbd0,self_restraint,have self-control -- like when you stop yourself from doing something you shouldn't do,no,0,0,9543,robot,a robot,AY01,4.9617,jmz,ay,,NA,run_01,7.025,f,yes,english,south or southeast asian; other: asian7,#c3e5b5,temperature,sense temperatures,no,0,0,5994,robot,a robot,AY01,4.9617,jmz,ay,,NA,run_01,7.025,f,yes,english,south or southeast asian; other: asian8,#bce98d,hungry,get hungry,kinda,0.5,0,4863,robot,a robot,AY01,4.9617,jmz,ay,,NA,run_01,7.025,f,yes,english,south or southeast asian; other: asian9,#fde096,computations,do math,no,0,0,4890,robot,a robot,AY01,4.961716667,jmz,ay,laughed,NA,run_01,7.025,f,yes,english,south or southeast asian; other: asian10,#d5d0fa,pain,feel pain,kinda,0.5,0,4349,robot,a robot,AY01,4.961716667,jmz,ay,,NA,run_01,7.025,f,yes,english,south or southeast asian; other: asian11,#e3d3af,guilt,feel guilty,yes,1,0,5965,robot,a robot,AY01,4.961716667,jmz,ay,,NA,run_01,7.025,f,yes,english,south or southeast asian; other: asian12,#aceab4,choices,make choices,kinda,0.5,0,5592,robot,a robot,AY01,4.961716667,jmz,ay,,NA,run_01,7.025,f,yes,english,south or southeast asian; other: asian13,#dedfa2,safe,feel safe,yes,1,0,5534,robot,a robot,AY01,4.961716667,jmz,ay,,NA,run_01,7.025,f,yes,english,south or southeast asian; other: asian14,#a7dcf9,conscious,be aware of things,no,0,0,7388,robot,a robot,AY01,4.961716667,jmz,ay,,NA,run_01,7.025,f,yes,english,south or southeast asian; other: asian15,#9be4c0,sounds,hear sounds,kinda,0.5,0,4610,robot,a robot,AY01,4.961716667,jmz,ay,,NA,run_01,7.025,f,yes,english,south or southeast asian; other: asian16,#dee7bc,free_will,decide what to do,yes,1,0,8392,robot,a robot,AY01,4.961716667,jmz,ay,,NA,run_01,7.025,f,yes,english,south or southeast asian; other: asian17,#f3c5fa,personality,have a personality -- like when someone is shy and somebody else is silly,no,0,0,10854,robot,a robot,AY01,4.961716667,jmz,ay,,NA,run_01,7.025,f,yes,english,south or southeast asian; other: asian18,#e3dbc8,thoughts,have thoughts,kinda,0.5,0,8292,robot,a robot,AY01,4.961716667,jmz,ay,,NA,run_01,7.025,f,yes,english,south or southeast asian; other: asian19,#8cf2c3,tired,feel tired,no,0,0,5993,robot,a robot,AY01,4.961716667,jmz,ay,,NA,run_01,7.025,f,yes,english,south or southeast asian; other: asian20,#f0d27e,self_aware,be aware of itself,no,0,0,5009,robot,a robot,AY01,4.961716667,jmz,ay,,NA,run_01,7.025,f,yes,english,south or southeast asian; other: asian21,#d1e48e,communicating,communicate with somebody else,yes,1,0,6921,robot,a robot,AY01,4.961716667,jmz,ay,,NA,run_01,7.025,f,yes,english,south or southeast asian; other: asian22,#94ebda,depth,sense whether something is close by or far away,yes,1,0,7092,robot,a robot,AY01,4.961716667,jmz,ay,,NA,run_01,7.025,f,yes,english,south or southeast asian; other: asian23,#5ef2da,love,feel love,no,0,0,5187,robot,a robot,AY01,4.961716667,jmz,ay,,NA,run_01,7.025,f,yes,english,south or southeast asian; other: asian24,#84eced,embarrassed,feel embarrassed,kinda,0.5,0,6811,robot,a robot,AY01,4.961716667,jmz,ay,,NA,run_01,7.025,f,yes,english,south or southeast asian; other: asian25,#3eeaef,joy,feel joy,yes,1,0,8881,robot,a robot,AY01,4.961716667,jmz,ay,,NA,run_01,7.025,f,yes,english,south or southeast asian; other: asian26,#f2cdb9,odors,smell things,kinda,0.5,0,6082,robot,a robot,AY01,4.961716667,jmz,ay,,NA,run_01,7.025,f,yes,english,south or southeast asian; other: asian27,#a9f2ce,recognizing,recognize somebody else,no,0,0,6155,robot,a robot,AY01,4.961716667,jmz,ay,,NA,run_01,7.025,f,yes,english,south or southeast asian; other: asian28,#a9e7e4,morality,know what's nice and what's mean,kinda,0.5,0,7190,robot,a robot,AY01,4.961716667,jmz,ay,,NA,run_01,7.025,f,yes,english,south or southeast asian; other: asian29,#d2dcee,beliefs,have beliefs -- like when you think something is true,yes,1,0,8882,robot,a robot,AY01,4.961716667,jmz,ay,,NA,run_01,7.025,f,yes,english,south or southeast asian; other: asian30,#e3df8e,depressed,feel sad,no,0,0,4584,robot,a robot,AY01,4.961716667,jmz,ay,laughed,NA,run_01,7.025,f,yes,english,south or southeast asian; other: asian31,#c2e9f5,nauseated,feel sick -- like when you feel like you might throw up,kinda,0.5,0,5528,robot,a robot,AY01,4.961716667,jmz,ay,,NA,run_01,7.025,f,yes,english,south or southeast asian; other: asian32,#97eca5,fear,feel scared,no,0,0,8415,robot,a robot,AY01,4.961716667,jmz,ay,,NA,run_01,7.025,f,yes,english,south or southeast asian; other: asian33,#f2e1bc,emo_recog,understand how somebody else is feeling,no,0,0,8302,robot,a robot,AY01,4.961716667,jmz,ay,,NA,run_01,7.025,f,yes,english,south or southeast asian; other: asian34,#bfd6fa,desires,have desires -- like when you really want something,yes,1,0,6484,robot,a robot,AY01,4.961716667,jmz,ay,,NA,run_01,7.025,f,yes,english,south or southeast asian; other: asian35,#d0d9ae,disrespected,get hurt feelings,kinda,0.5,0,4448,robot,a robot,AY01,4.961716667,jmz,ay,,NA,run_01,7.025,f,yes,english,south or southeast asian; other: asian36,#bae6c8,reasoning,figure out how to do things,no,0,0,8264,robot,a robot,AY01,4.961716667,jmz,ay,,NA,run_01,7.025,f,yes,english,south or southeast asian; other: asian37,#ead1ec,happy,feel happy,kinda,0.5,0,3772,robot,a robot,AY01,4.961716667,jmz,ay,,NA,run_01,7.025,f,yes,english,south or southeast asian; other: asian38,#79e3f9,intentions,make plans,no,0,0,7506,robot,a robot,AY01,4.961716667,jmz,ay,,NA,run_01,7.025,f,yes,english,south or southeast asian; other: asian39,#d0e0c8,angry,get angry,kinda,0.5,0,3998,robot,a robot,AY01,4.961716667,jmz,ay,,NA,run_01,7.025,f,yes,english,south or southeast asian; other: asian40,#64f8f4,goal,have goals -- like when you're working hard to do something or make something happen,kinda,0.5,0,9565,robot,a robot,AY01,4.961716667,jmz,ay,,NA,run_01,7.025,f,yes,english,south or southeast asian; other: asian1,#bae6c8,love,feel love,yes,1,0,5561,beetle,a beetle,AY02,5.031333333,jmz,ay,,NA,run_01,8.194444444,f,no,english,"south or southeast asian; white, caucasian, or european american"2,#d5d0fa,desires,have desires -- like when you really want something,kinda,0.5,0,9178,beetle,a beetle,AY02,5.031333333,jmz,ay,,NA,run_01,8.194444444,f,no,english,"south or southeast asian; white, caucasian, or european american"3,#cde8e2,embarrassed,feel embarrassed,yes,1,0,5474,beetle,a beetle,AY02,5.031333333,jmz,ay,,NA,run_01,8.194444444,f,no,english,"south or southeast asian; white, caucasian, or european american"4,#a9f2ce,joy,feel joy,yes,1,0,5471,beetle,a beetle,AY02,5.031333333,jmz,ay,,NA,run_01,8.194444444,f,no,english,"south or southeast asian; white, caucasian, or european american"5,#bce98d,safe,feel safe,yes,1,0,4790,beetle,a beetle,AY02,5.031333333,jmz,ay,,NA,run_01,8.194444444,f,no,english,"south or southeast asian; white, caucasian, or european american"6,#b5eaa1,sounds,hear sounds,no,0,0,8193,beetle,a beetle,AY02,5.031333333,jmz,ay,,NA,run_01,8.194444444,f,no,english,"south or southeast asian; white, caucasian, or european american"7,#fddbd0,communicating,communicate with somebody else,yes,1,0,7063,beetle,a beetle,AY02,5.031333333,jmz,ay,,NA,run_01,8.194444444,f,no,english,"south or southeast asian; white, caucasian, or european american"8,#c2e9f5,temperature,sense temperatures,yes,1,0,4988,beetle,a beetle,AY02,5.031333333,jmz,ay,,NA,run_01,8.194444444,f,no,english,"south or southeast asian; white, caucasian, or european american"9,#94ebda,intentions,make plans,kinda,0.5,0,5447,beetle,a beetle,AY02,5.031333333,jmz,ay,,NA,run_01,8.194444444,f,no,english,"south or southeast asian; white, caucasian, or european american"10,#f2cdb9,nauseated,feel sick -- like when you feel like you might throw up,kinda,0.5,0,7940,beetle,a beetle,AY02,5.031333333,jmz,ay,,NA,run_01,8.194444444,f,no,english,"south or southeast asian; white, caucasian, or european american"11,#dee7bc,happy,feel happy,yes,1,0,4315,beetle,a beetle,AY02,5.031333333,jmz,ay,,NA,run_01,8.194444444,f,no,english,"south or southeast asian; white, caucasian, or european american"12,#a7dcf9,emo_recog,understand how somebody else is feeling,kinda,0.5,0,11112,beetle,a beetle,AY02,5.031333333,jmz,ay,,NA,run_01,8.194444444,f,no,english,"south or southeast asian; white, caucasian, or european american"13,#8cf2c3,depressed,feel sad,kinda,0.5,0,14034,beetle,a beetle,AY02,5.031333333,jmz,ay,,NA,run_01,8.194444444,f,no,english,"south or southeast asian; white, caucasian, or european american"14,#f3d0d9,self_aware,be aware of itself,yes,1,0,5243,beetle,a beetle,AY02,5.031333333,jmz,ay,,NA,run_01,8.194444444,f,no,english,"south or southeast asian; white, caucasian, or european american"15,#d0d9ae,goal,have goals -- like when you're working hard to do something or make something happen,kinda,0.5,0,8792,beetle,a beetle,AY02,5.031333333,jmz,ay,,NA,run_01,8.194444444,f,no,english,"south or southeast asian; white, caucasian, or european american"16,#79e3f9,self_restraint,have self-control -- like when you stop yourself from doing something you shouldn't do,yes,1,0,6728,beetle,a beetle,AY02,5.031333333,jmz,ay,,NA,run_01,8.194444444,f,no,english,"south or southeast asian; white, caucasian, or european american"17,#a9e7e4,conscious,be aware of things,yes,1,0,5328,beetle,a beetle,AY02,5.031333333,jmz,ay,,NA,run_01,8.194444444,f,no,english,"south or southeast asian; white, caucasian, or european american"18,#97eca5,seeing,see things,yes,1,0,5972,beetle,a beetle,AY02,5.031333333,jmz,ay,,NA,run_01,8.194444444,f,no,english,"south or southeast asian; white, caucasian, or european american"19,#aceab4,fear,feel scared,yes,1,0,3697,beetle,a beetle,AY02,5.031333333,jmz,ay,,NA,run_01,8.194444444,f,no,english,"south or southeast asian; white, caucasian, or european american"20,#fde096,pride,feel proud,yes,1,0,6373,beetle,a beetle,AY02,5.031333333,jmz,ay,,NA,run_01,8.194444444,f,no,english,"south or southeast asian; white, caucasian, or european american"21,#d0e0c8,morality,know what's nice and what's mean,yes,1,0,8457,beetle,a beetle,AY02,5.031333333,jmz,ay,,NA,run_01,8.194444444,f,no,english,"south or southeast asian; white, caucasian, or european american"22,#e3d3af,remembering,remember things,yes,1,0,6549,beetle,a beetle,AY02,5.031333333,jmz,ay,,NA,run_01,8.194444444,f,no,english,"south or southeast asian; white, caucasian, or european american"23,#3eeaef,odors,smell things,yes,1,0,5777,beetle,a beetle,AY02,5.031333333,jmz,ay,,NA,run_01,8.194444444,f,no,english,"south or southeast asian; white, caucasian, or european american"24,#f0d27e,calm,feel calm,yes,1,0,5623,beetle,a beetle,AY02,5.031333333,jmz,ay,,NA,run_01,8.194444444,f,no,english,"south or southeast asian; white, caucasian, or european american"25,#f2e1bc,hungry,get hungry,yes,1,0,6961,beetle,a beetle,AY02,5.031333333,jmz,ay,,NA,run_01,8.194444444,f,no,english,"south or southeast asian; white, caucasian, or european american"26,#d2dcee,tired,feel tired,yes,1,0,5656,beetle,a beetle,AY02,5.031333333,jmz,ay,,NA,run_01,8.194444444,f,no,english,"south or southeast asian; white, caucasian, or european american"27,#64f8f4,recognizing,recognize somebody else,yes,1,0,9102,beetle,a beetle,AY02,5.03135,jmz,ay,Recognize like a person?,NA,run_01,8.194444444,f,no,english,"south or southeast asian; white, caucasian, or european american"28,#fdcc93,pleasure,feel pleasure -- like when something feels really good,kinda,0.5,0,9325,beetle,a beetle,AY02,5.03135,jmz,ay,,NA,run_01,8.194444444,f,no,english,"south or southeast asian; white, caucasian, or european american"29,#f0d9a2,angry,get angry,yes,1,0,6827,beetle,a beetle,AY02,5.03135,jmz,ay,,NA,run_01,8.194444444,f,no,english,"south or southeast asian; white, caucasian, or european american"30,#e3df8e,computations,do math,no,0,0,4858,beetle,a beetle,AY02,5.03135,jmz,ay,,NA,run_01,8.194444444,f,no,english,"south or southeast asian; white, caucasian, or european american"31,#d1e48e,guilt,feel guilty,kinda,0.5,0,9556,beetle,a beetle,AY02,5.03135,jmz,ay,,NA,run_01,8.194444444,f,no,english,"south or southeast asian; white, caucasian, or european american"32,#84eced,free_will,decide what to do,yes,1,0,8946,beetle,a beetle,AY02,5.03135,jmz,ay,,NA,run_01,8.194444444,f,no,english,"south or southeast asian; white, caucasian, or european american"33,#dedfa2,disrespected,get hurt feelings,kinda,0.5,0,6786,beetle,a beetle,AY02,5.03135,jmz,ay,,NA,run_01,8.194444444,f,no,english,"south or southeast asian; white, caucasian, or european american"34,#e3dbc8,pain,feel pain,yes,1,0,6106,beetle,a beetle,AY02,5.03135,jmz,ay,,NA,run_01,8.194444444,f,no,english,"south or southeast asian; white, caucasian, or european american"35,#c3e5b5,reasoning,figure out how to do things,yes,1,0,6260,beetle,a beetle,AY02,5.03135,jmz,ay,,NA,run_01,8.194444444,f,no,english,"south or southeast asian; white, caucasian, or european american"36,#9be4c0,personality,have a personality -- like when someone is shy and somebody else is silly,yes,1,0,7419,beetle,a beetle,AY02,5.03135,jmz,ay,,NA,run_01,8.194444444,f,no,english,"south or southeast asian; white, caucasian, or european american"37,#bfd6fa,depth,sense whether something is close by or far away,yes,1,0,6133,beetle,a beetle,AY02,5.03135,jmz,ay,,NA,run_01,8.194444444,f,no,english,"south or southeast asian; white, caucasian, or european american"38,#f3c5fa,choices,make choices,kinda,0.5,0,6834,beetle,a beetle,AY02,5.03135,jmz,ay,,NA,run_01,8.194444444,f,no,english,"south or southeast asian; white, caucasian, or european american"39,#b4dbe7,beliefs,have beliefs -- like when you think something is true,kinda,0.5,0,10467,beetle,a beetle,AY02,5.03135,jmz,ay,,NA,run_01,8.194444444,f,no,english,"south or southeast asian; white, caucasian, or european american"40,#ead1ec,thoughts,have thoughts,yes,1,0,4319,beetle,a beetle,AY02,5.03135,jmz,ay,,NA,run_01,8.194444444,f,no,english,"south or southeast asian; white, caucasian, or european american"1,#a9f2ce,free_will,decide what to do,yes,1,0,12338,beetle,a beetle,AY03,4.502383333,JMZ,AY,,NA,run_01,8.038888889,f,yes,"english, hindi",other (asian)2,#b5eaa1,calm,feel calm,yes,1,0,4551,beetle,a beetle,AY03,4.502383333,JMZ,AY,,NA,run_01,8.038888889,f,yes,"english, hindi",other (asian)3,#d2dcee,happy,feel happy,yes,1,0,3797,beetle,a beetle,AY03,4.5024,JMZ,AY,,NA,run_01,8.038888889,f,yes,"english, hindi",other (asian)4,#e3df8e,pain,feel pain,yes,1,0,6650,beetle,a beetle,AY03,4.5024,JMZ,AY,,NA,run_01,8.038888889,f,yes,"english, hindi",other (asian)5,#c3e5b5,emo_recog,understand how somebody else is feeling,no,0,0,5561,beetle,a beetle,AY03,4.5024,JMZ,AY,,NA,run_01,8.038888889,f,yes,"english, hindi",other (asian)6,#ead1ec,self_restraint,have self-control -- like when you stop yourself from doing something you shouldn't do,no,0,0,7352,beetle,a beetle,AY03,4.5024,JMZ,AY,,NA,run_01,8.038888889,f,yes,"english, hindi",other (asian)7,#b4dbe7,pride,feel proud,yes,1,0,4322,beetle,a beetle,AY03,4.5024,JMZ,AY,,NA,run_01,8.038888889,f,yes,"english, hindi",other (asian)8,#79e3f9,depth,sense whether something is close by or far away,no,0,0,5885,beetle,a beetle,AY03,4.5024,JMZ,AY,,NA,run_01,8.038888889,f,yes,"english, hindi",other (asian)9,#e3dbc8,disrespected,get hurt feelings,kinda,0.5,0,4754,beetle,a beetle,AY03,4.5024,JMZ,AY,,NA,run_01,8.038888889,f,yes,"english, hindi",other (asian)10,#f3c5fa,computations,do math,no,0,0,4027,beetle,a beetle,AY03,4.5024,JMZ,AY,,NA,run_01,8.038888889,f,yes,"english, hindi",other (asian)11,#a7dcf9,beliefs,have beliefs -- like when you think something is true,kinda,0.5,51296,16923,beetle,a beetle,AY03,4.5024,JMZ,AY,What does beliefs mean?,NA,run_01,8.038888889,f,yes,"english, hindi",other (asian)12,#84eced,recognizing,recognize somebody else,no,0,0,7332,beetle,a beetle,AY03,4.5024,JMZ,AY,,NA,run_01,8.038888889,f,yes,"english, hindi",other (asian)13,#dee7bc,intentions,make plans,no,0,0,5271,beetle,a beetle,AY03,4.5024,JMZ,AY,,NA,run_01,8.038888889,f,yes,"english, hindi",other (asian)14,#aceab4,safe,feel safe,yes,1,0,4777,beetle,a beetle,AY03,4.5024,JMZ,AY,,NA,run_01,8.038888889,f,yes,"english, hindi",other (asian)15,#bae6c8,desires,have desires -- like when you really want something,kinda,0.5,0,6803,beetle,a beetle,AY03,4.5024,JMZ,AY,,NA,run_01,8.038888889,f,yes,"english, hindi",other (asian)16,#f2cdb9,hungry,get hungry,yes,1,0,3861,beetle,a beetle,AY03,4.5024,JMZ,AY,,NA,run_01,8.038888889,f,yes,"english, hindi",other (asian)17,#fdcc93,embarrassed,feel embarrassed,kinda,0.5,0,4040,beetle,a beetle,AY03,4.5024,JMZ,AY,,NA,run_01,8.038888889,f,yes,"english, hindi",other (asian)18,#9be4c0,reasoning,figure out how to do things,kinda,0.5,0,7332,beetle,a beetle,AY03,4.5024,JMZ,AY,,NA,run_01,8.038888889,f,yes,"english, hindi",other (asian)19,#dedfa2,guilt,feel guilty,kinda,0.5,0,5316,beetle,a beetle,AY03,4.5024,JMZ,AY,,NA,run_01,8.038888889,f,yes,"english, hindi",other (asian)20,#94ebda,goal,have goals -- like when you're working hard to do something or make something happen,no,0,0,8739,beetle,a beetle,AY03,4.5024,JMZ,AY,,NA,run_01,8.038888889,f,yes,"english, hindi",other (asian)21,#f0d9a2,depressed,feel sad,yes,1,0,4291,beetle,a beetle,AY03,4.5024,JMZ,AY,,NA,run_01,8.038888889,f,yes,"english, hindi",other (asian)22,#c2e9f5,love,feel love,yes,1,0,4290,beetle,a beetle,AY03,4.5024,JMZ,AY,,NA,run_01,8.038888889,f,yes,"english, hindi",other (asian)23,#d1e48e,temperature,sense temperatures,no,0,0,4054,beetle,a beetle,AY03,4.5024,JMZ,AY,,NA,run_01,8.038888889,f,yes,"english, hindi",other (asian)24,#f2e1bc,communicating,communicate with somebody else,yes,1,0,5187,beetle,a beetle,AY03,4.5024,JMZ,AY,,NA,run_01,8.038888889,f,yes,"english, hindi",other (asian)25,#fde096,odors,smell things,kinda,0.5,0,4782,beetle,a beetle,AY03,4.5024,JMZ,AY,,NA,run_01,8.038888889,f,yes,"english, hindi",other (asian)26,#8cf2c3,choices,make choices,kinda,0.5,0,5377,beetle,a beetle,AY03,4.5024,JMZ,AY,,NA,run_01,8.038888889,f,yes,"english, hindi",other (asian)27,#d5d0fa,morality,know what's nice and what's mean,no,0,0,7001,beetle,a beetle,AY03,4.5024,JMZ,AY,,NA,run_01,8.038888889,f,yes,"english, hindi",other (asian)28,#3eeaef,sounds,hear sounds,kinda,0.5,0,5496,beetle,a beetle,AY03,4.5024,JMZ,AY,,NA,run_01,8.038888889,f,yes,"english, hindi",other (asian)29,#cde8e2,conscious,be aware of things,no,0,0,8740,beetle,a beetle,AY03,4.5024,JMZ,AY,,NA,run_01,8.038888889,f,yes,"english, hindi",other (asian)30,#d0d9ae,remembering,remember things,kinda,0.5,0,4082,beetle,a beetle,AY03,4.5024,JMZ,AY,,NA,run_01,8.038888889,f,yes,"english, hindi",other (asian)31,#5ef2da,nauseated,feel sick -- like when you feel like you might throw up,no,0,0,6932,beetle,a beetle,AY03,4.5024,JMZ,AY,,NA,run_01,8.038888889,f,yes,"english, hindi",other (asian)32,#e3d3af,pleasure,feel pleasure -- like when something feels really good,yes,1,0,10395,beetle,a beetle,AY03,4.5024,JMZ,AY,,NA,run_01,8.038888889,f,yes,"english, hindi",other (asian)33,#cae5a1,angry,get angry,kinda,0.5,0,5588,beetle,a beetle,AY03,4.5024,JMZ,AY,,NA,run_01,8.038888889,f,yes,"english, hindi",other (asian)34,#a9e7e4,self_aware,be aware of itself,no,0,0,4959,beetle,a beetle,AY03,4.5024,JMZ,AY,,NA,run_01,8.038888889,f,yes,"english, hindi",other (asian)35,#f3d0d9,joy,feel joy,yes,1,0,4226,beetle,a beetle,AY03,4.5024,JMZ,AY,,NA,run_01,8.038888889,f,yes,"english, hindi",other (asian)36,#bfd6fa,fear,feel scared,kinda,0.5,0,3783,beetle,a beetle,AY03,4.5024,JMZ,AY,,NA,run_01,8.038888889,f,yes,"english, hindi",other (asian)37,#bce98d,personality,have a personality -- like when someone is shy and somebody else is silly,kinda,0.5,0,11677,beetle,a beetle,AY03,4.5024,JMZ,AY,,NA,run_01,8.038888889,f,yes,"english, hindi",other (asian)38,#64f8f4,thoughts,have thoughts,yes,1,0,4464,beetle,a beetle,AY03,4.5024,JMZ,AY,,NA,run_01,8.038888889,f,yes,"english, hindi",other (asian)39,#d0e0c8,tired,feel tired,kinda,0.5,0,4043,beetle,a beetle,AY03,4.5024,JMZ,AY,,NA,run_01,8.038888889,f,yes,"english, hindi",other (asian)40,#f0d27e,seeing,see things,kinda,0.5,0,7377,beetle,a beetle,AY03,4.5024,JMZ,AY,,NA,run_01,8.038888889,f,yes,"english, hindi",other (asian)1,#f0d9a2,tired,feel tired,kinda,0.5,0,15971,robot,a robot,AY04,4.030133333,JMZ,AY,,NA,run_01,7.566666667,f,yes,"chinese, english",east asian2,#5ef2da,depth,sense whether something is close by or far away,skip,NA,0,1960,robot,a robot,AY04,4.030133333,JMZ,AY,She skipped this one because she was clicking through by herself and accidentally clicked twice. I took over after this and the rest went well,NA,run_01,7.566666667,f,yes,"chinese, english",east asian3,#fdcc93,joy,feel joy,no,0,0,11074,robot,a robot,AY04,4.030133333,JMZ,AY,,NA,run_01,7.566666667,f,yes,"chinese, english",east asian4,#84eced,reasoning,figure out how to do things,kinda,0.5,0,5981,robot,a robot,AY04,4.030133333,JMZ,AY,,NA,run_01,7.566666667,f,yes,"chinese, english",east asian5,#f2cdb9,calm,feel calm,yes,1,0,4679,robot,a robot,AY04,4.030133333,JMZ,AY,,NA,run_01,7.566666667,f,yes,"chinese, english",east asian6,#c2e9f5,fear,feel scared,no,0,0,5687,robot,a robot,AY04,4.030133333,JMZ,AY,,NA,run_01,7.566666667,f,yes,"chinese, english",east asian7,#bae6c8,recognizing,recognize somebody else,no,0,0,4028,robot,a robot,AY04,4.03015,JMZ,AY,,NA,run_01,7.566666667,f,yes,"chinese, english",east asian8,#3eeaef,beliefs,have beliefs -- like when you think something is true,no,0,0,5996,robot,a robot,AY04,4.03015,JMZ,AY,,NA,run_01,7.566666667,f,yes,"chinese, english",east asian9,#fde096,hungry,get hungry,no,0,0,3641,robot,a robot,AY04,4.03015,JMZ,AY,,NA,run_01,7.566666667,f,yes,"chinese, english",east asian10,#fddbd0,embarrassed,feel embarrassed,no,0,0,3501,robot,a robot,AY04,4.03015,JMZ,AY,,NA,run_01,7.566666667,f,yes,"chinese, english",east asian11,#a9f2ce,goal,have goals -- like when you're working hard to do something or make something happen,kinda,0.5,0,7927,robot,a robot,AY04,4.03015,JMZ,AY,,NA,run_01,7.566666667,f,yes,"chinese, english",east asian12,#d0d9ae,pain,feel pain,no,0,0,4172,robot,a robot,AY04,4.03015,JMZ,AY,,NA,run_01,7.566666667,f,yes,"chinese, english",east asian13,#cde8e2,depressed,feel sad,no,0,0,3333,robot,a robot,AY04,4.03015,JMZ,AY,,NA,run_01,7.566666667,f,yes,"chinese, english",east asian14,#f3c5fa,disrespected,get hurt feelings,no,0,0,3641,robot,a robot,AY04,4.03015,JMZ,AY,,NA,run_01,7.566666667,f,yes,"chinese, english",east asian15,#9be4c0,seeing,see things,yes,1,0,5153,robot,a robot,AY04,4.03015,JMZ,AY,,NA,run_01,7.566666667,f,yes,"chinese, english",east asian16,#f0d27e,safe,feel safe,yes,1,0,3973,robot,a robot,AY04,4.03015,JMZ,AY,,NA,run_01,7.566666667,f,yes,"chinese, english",east asian17,#a7dcf9,nauseated,feel sick -- like when you feel like you might throw up,no,0,0,5783,robot,a robot,AY04,4.03015,JMZ,AY,,NA,run_01,7.566666667,f,yes,"chinese, english",east asian18,#64f8f4,intentions,make plans,no,0,0,4902,robot,a robot,AY04,4.03015,JMZ,AY,,NA,run_01,7.566666667,f,yes,"chinese, english",east asian19,#f2e1bc,thoughts,have thoughts,kinda,0.5,0,4590,robot,a robot,AY04,4.03015,JMZ,AY,,NA,run_01,7.566666667,f,yes,"chinese, english",east asian20,#d1e48e,conscious,be aware of things,yes,1,0,4367,robot,a robot,AY04,4.03015,JMZ,AY,,NA,run_01,7.566666667,f,yes,"chinese, english",east asian21,#97eca5,odors,smell things,no,0,0,3690,robot,a robot,AY04,4.03015,JMZ,AY,,NA,run_01,7.566666667,f,yes,"chinese, english",east asian22,#b5eaa1,temperature,sense temperatures,yes,1,0,3827,robot,a robot,AY04,4.03015,JMZ,AY,,NA,run_01,7.566666667,f,yes,"chinese, english",east asian23,#d5d0fa,free_will,decide what to do,yes,1,0,5069,robot,a robot,AY04,4.03015,JMZ,AY,,NA,run_01,7.566666667,f,yes,"chinese, english",east asian24,#c3e5b5,remembering,remember things,no,0,0,4502,robot,a robot,AY04,4.03015,JMZ,AY,,NA,run_01,7.566666667,f,yes,"chinese, english",east asian25,#8cf2c3,happy,feel happy,yes,1,0,3641,robot,a robot,AY04,4.03015,JMZ,AY,,NA,run_01,7.566666667,f,yes,"chinese, english",east asian26,#d2dcee,pride,feel proud,kinda,0.5,0,3794,robot,a robot,AY04,4.03015,JMZ,AY,,NA,run_01,7.566666667,f,yes,"chinese, english",east asian27,#bce98d,sounds,hear sounds,yes,1,0,3907,robot,a robot,AY04,4.03015,JMZ,AY,,NA,run_01,7.566666667,f,yes,"chinese, english",east asian28,#aceab4,desires,have desires -- like when you really want something,no,0,0,8556,robot,a robot,AY04,4.03015,JMZ,AY,,NA,run_01,7.566666667,f,yes,"chinese, english",east asian29,#e3df8e,morality,know what's nice and what's mean,no,0,0,10015,robot,a robot,AY04,4.03015,JMZ,AY,,NA,run_01,7.566666667,f,yes,"chinese, english",east asian30,#dee7bc,self_restraint,have self-control -- like when you stop yourself from doing something you shouldn't do,no,0,0,7727,robot,a robot,AY04,4.03015,JMZ,AY,,NA,run_01,7.566666667,f,yes,"chinese, english",east asian31,#a9e7e4,choices,make choices,kinda,0.5,0,3915,robot,a robot,AY04,4.03015,JMZ,AY,,NA,run_01,7.566666667,f,yes,"chinese, english",east asian32,#d0e0c8,personality,have a personality -- like when someone is shy and somebody else is silly,no,0,0,6940,robot,a robot,AY04,4.03015,JMZ,AY,,NA,run_01,7.566666667,f,yes,"chinese, english",east asian33,#e3d3af,angry,get angry,yes,1,0,4238,robot,a robot,AY04,4.03015,JMZ,AY,,NA,run_01,7.566666667,f,yes,"chinese, english",east asian34,#f3d0d9,computations,do math,yes,1,0,3233,robot,a robot,AY04,4.03015,JMZ,AY,,NA,run_01,7.566666667,f,yes,"chinese, english",east asian35,#e3dbc8,pleasure,feel pleasure -- like when something feels really good,kinda,0.5,0,5816,robot,a robot,AY04,4.03015,JMZ,AY,,NA,run_01,7.566666667,f,yes,"chinese, english",east asian36,#cae5a1,self_aware,be aware of itself,kinda,0.5,0,8245,robot,a robot,AY04,4.03015,JMZ,AY,,NA,run_01,7.566666667,f,yes,"chinese, english",east asian37,#bfd6fa,emo_recog,understand how somebody else is feeling,no,0,0,5745,robot,a robot,AY04,4.03015,JMZ,AY,,NA,run_01,7.566666667,f,yes,"chinese, english",east asian38,#ead1ec,love,feel love,no,0,0,3519,robot,a robot,AY04,4.03015,JMZ,AY,,NA,run_01,7.566666667,f,yes,"chinese, english",east asian39,#b4dbe7,guilt,feel guilty,yes,1,0,4099,robot,a robot,AY04,4.03015,JMZ,AY,,NA,run_01,7.566666667,f,yes,"chinese, english",east asian40,#79e3f9,communicating,communicate with somebody else,yes,1,0,4353,robot,a robot,AY04,4.03015,JMZ,AY,,NA,run_01,7.566666667,f,yes,"chinese, english",east asian1,NA,love,feel love,kinda,NA,NA,NA,beetle,a beetle,CF01,NA,JMZ,CF,"""I don't know""",NA,run_01,7.45,f,no,english,"white, caucasian, or european american"2,NA,fear,feel scared,yes,NA,NA,NA,beetle,a beetle,CF01,NA,JMZ,CF,,NA,run_01,7.45,f,no,english,"white, caucasian, or european american"3,NA,guilt,feel guilty,kinda,NA,NA,NA,beetle,a beetle,CF01,NA,JMZ,CF,,NA,run_01,7.45,f,no,english,"white, caucasian, or european american"4,NA,intentions,make plans,no,NA,NA,NA,beetle,a beetle,CF01,NA,JMZ,CF,,NA,run_01,7.45,f,no,english,"white, caucasian, or european american"5,NA,conscious,be aware of things,kinda,NA,NA,NA,beetle,a beetle,CF01,NA,JMZ,CF,,NA,run_01,7.45,f,no,english,"white, caucasian, or european american"6,NA,seeing,see things,yes,NA,NA,NA,beetle,a beetle,CF01,NA,JMZ,CF,,NA,run_01,7.45,f,no,english,"white, caucasian, or european american"7,NA,pride,feel proud,yes,NA,NA,NA,beetle,a beetle,CF01,NA,JMZ,CF,,NA,run_01,7.45,f,no,english,"white, caucasian, or european american"8,NA,pain,feel pain,yes,NA,NA,NA,beetle,a beetle,CF01,NA,JMZ,CF,,NA,run_01,7.45,f,no,english,"white, caucasian, or european american"9,NA,hungry,get hungry,yes,NA,NA,NA,beetle,a beetle,CF01,NA,JMZ,CF,,NA,run_01,7.45,f,no,english,"white, caucasian, or european american"10,NA,calm,feel calm,kinda,NA,NA,NA,beetle,a beetle,CF01,NA,JMZ,CF,,NA,run_01,7.45,f,no,english,"white, caucasian, or european american"11,NA,desires,have desires -- like when you really want something,yes,NA,NA,NA,beetle,a beetle,CF01,NA,JMZ,CF,,NA,run_01,7.45,f,no,english,"white, caucasian, or european american"12,NA,morality,know what's nice and what's mean,yes,NA,NA,NA,beetle,a beetle,CF01,NA,JMZ,CF,,NA,run_01,7.45,f,no,english,"white, caucasian, or european american"13,NA,self_aware,be aware of itself,kinda,NA,NA,NA,beetle,a beetle,CF01,NA,JMZ,CF,,NA,run_01,7.45,f,no,english,"white, caucasian, or european american"14,NA,safe,feel safe,yes,NA,NA,NA,beetle,a beetle,CF01,NA,JMZ,CF,,NA,run_01,7.45,f,no,english,"white, caucasian, or european american"15,NA,odors,smell things,kinda,NA,NA,NA,beetle,a beetle,CF01,NA,JMZ,CF,,NA,run_01,7.45,f,no,english,"white, caucasian, or european american"16,NA,self_restraint,have self-control -- like when you stop yourself from doing something you shouldn't do,no,NA,NA,NA,beetle,a beetle,CF01,NA,JMZ,CF,,NA,run_01,7.45,f,no,english,"white, caucasian, or european american"17,NA,computations,do math,kinda,NA,NA,NA,beetle,a beetle,CF01,NA,JMZ,CF,,NA,run_01,7.45,f,no,english,"white, caucasian, or european american"18,NA,emo_recog,understand how somebody else is feeling,no,NA,NA,NA,beetle,a beetle,CF01,NA,JMZ,CF,,NA,run_01,7.45,f,no,english,"white, caucasian, or european american"19,NA,choices,make choices,yes,NA,NA,NA,beetle,a beetle,CF01,NA,JMZ,CF,,NA,run_01,7.45,f,no,english,"white, caucasian, or european american"20,NA,free_will,decide what to do,kinda,NA,NA,NA,beetle,a beetle,CF01,NA,JMZ,CF,,NA,run_01,7.45,f,no,english,"white, caucasian, or european american"21,NA,sounds,hear sounds,yes,NA,NA,NA,beetle,a beetle,CF01,NA,JMZ,CF,,NA,run_01,7.45,f,no,english,"white, caucasian, or european american"22,NA,personality,have a personality -- like when someone is shy and somebody else is silly,yes,NA,NA,NA,beetle,a beetle,CF01,NA,JMZ,CF,,NA,run_01,7.45,f,no,english,"white, caucasian, or european american"23,NA,reasoning,figure out how to do things,yes,NA,NA,NA,beetle,a beetle,CF01,NA,JMZ,CF,,NA,run_01,7.45,f,no,english,"white, caucasian, or european american"24,NA,remembering,remember things,kinda,NA,NA,NA,beetle,a beetle,CF01,NA,JMZ,CF,,NA,run_01,7.45,f,no,english,"white, caucasian, or european american"25,NA,thoughts,have thoughts,yes,NA,NA,NA,beetle,a beetle,CF01,NA,JMZ,CF,,NA,run_01,7.45,f,no,english,"white, caucasian, or european american"26,NA,depth,sense whether something is close by or far away,yes,NA,NA,NA,beetle,a beetle,CF01,NA,JMZ,CF,,NA,run_01,7.45,f,no,english,"white, caucasian, or european american"27,NA,embarrassed,feel embarrassed,kinda,NA,NA,NA,beetle,a beetle,CF01,NA,JMZ,CF,,NA,run_01,7.45,f,no,english,"white, caucasian, or european american"28,NA,disrespected,get hurt feelings,yes,NA,NA,NA,beetle,a beetle,CF01,NA,JMZ,CF,,NA,run_01,7.45,f,no,english,"white, caucasian, or european american"29,NA,happy,feel happy,yes,NA,NA,NA,beetle,a beetle,CF01,NA,JMZ,CF,,NA,run_01,7.45,f,no,english,"white, caucasian, or european american"30,NA,pleasure,feel pleasure -- like when something feels really good,yes,NA,NA,NA,beetle,a beetle,CF01,NA,JMZ,CF,,NA,run_01,7.45,f,no,english,"white, caucasian, or european american"31,NA,communicating,communicate with somebody else,kinda,NA,NA,NA,beetle,a beetle,CF01,NA,JMZ,CF,,NA,run_01,7.45,f,no,english,"white, caucasian, or european american"32,NA,joy,feel joy,yes,NA,NA,NA,beetle,a beetle,CF01,NA,JMZ,CF,,NA,run_01,7.45,f,no,english,"white, caucasian, or european american"33,NA,goal,have goals -- like when you're working hard to do something or make something happen,yes,NA,NA,NA,beetle,a beetle,CF01,NA,JMZ,CF,,NA,run_01,7.45,f,no,english,"white, caucasian, or european american"34,NA,nauseated,feel sick -- like when you feel like you might throw up,yes,NA,NA,NA,beetle,a beetle,CF01,NA,JMZ,CF,laughed,NA,run_01,7.45,f,no,english,"white, caucasian, or european american"35,NA,tired,feel tired,yes,NA,NA,NA,beetle,a beetle,CF01,NA,JMZ,CF,,NA,run_01,7.45,f,no,english,"white, caucasian, or european american"36,NA,angry,get angry,yes,NA,NA,NA,beetle,a beetle,CF01,NA,JMZ,CF,,NA,run_01,7.45,f,no,english,"white, caucasian, or european american"37,NA,recognizing,recognize somebody else,yes,NA,NA,NA,beetle,a beetle,CF01,NA,JMZ,CF,,NA,run_01,7.45,f,no,english,"white, caucasian, or european american"38,NA,temperature,sense temperatures,kinda,NA,NA,NA,beetle,a beetle,CF01,NA,JMZ,CF,,NA,run_01,7.45,f,no,english,"white, caucasian, or european american"39,NA,depressed,feel sad,yes,NA,NA,NA,beetle,a beetle,CF01,NA,JMZ,CF,,NA,run_01,7.45,f,no,english,"white, caucasian, or european american"40,NA,beliefs,have beliefs -- like when you think something is true,kinda,NA,NA,NA,beetle,a beetle,CF01,NA,JMZ,CF,,NA,run_01,7.45,f,no,english,"white, caucasian, or european american"1,#d1e48e,disrespected,get hurt feelings,no,0,0,10462,robot,a robot,CF02,6.426083333,JMZ,CF,,NA,run_01,8.269444444,m,yes,"russian, german, egnlish","white, caucasian, or european american"2,#f3c5fa,depth,sense whether something is close by or far away,yes,1,0,7711,robot,a robot,CF02,6.426083333,JMZ,CF,,NA,run_01,8.269444444,m,yes,"russian, german, egnlish","white, caucasian, or european american"3,#64f8f4,emo_recog,understand how somebody else is feeling,no,0,0,14348,robot,a robot,CF02,6.426083333,JMZ,CF,,NA,run_01,8.269444444,m,yes,"russian, german, egnlish","white, caucasian, or european american"4,#94ebda,thoughts,have thoughts,yes,1,0,8847,robot,a robot,CF02,6.426083333,JMZ,CF,,NA,run_01,8.269444444,m,yes,"russian, german, egnlish","white, caucasian, or european american"5,#d2dcee,desires,have desires -- like when you really want something,yes,1,0,9242,robot,a robot,CF02,6.426083333,JMZ,CF,,NA,run_01,8.269444444,m,yes,"russian, german, egnlish","white, caucasian, or european american"6,#cae5a1,goal,have goals -- like when you're working hard to do something or make something happen,yes,1,0,15207,robot,a robot,CF02,6.426083333,JMZ,CF,,NA,run_01,8.269444444,m,yes,"russian, german, egnlish","white, caucasian, or european american"7,#a9f2ce,safe,feel safe,no,0,0,17108,robot,a robot,CF02,6.426083333,JMZ,CF,,NA,run_01,8.269444444,m,yes,"russian, german, egnlish","white, caucasian, or european american"8,#84eced,morality,know what's nice and what's mean,no,0,0,7343,robot,a robot,CF02,6.426083333,JMZ,CF,,NA,run_01,8.269444444,m,yes,"russian, german, egnlish","white, caucasian, or european american"9,#a9e7e4,fear,feel scared,yes,1,0,6826,robot,a robot,CF02,6.426083333,JMZ,CF,,NA,run_01,8.269444444,m,yes,"russian, german, egnlish","white, caucasian, or european american"10,#f2e1bc,pain,feel pain,yes,1,0,12872,robot,a robot,CF02,6.426083333,JMZ,CF,,NA,run_01,8.269444444,m,yes,"russian, german, egnlish","white, caucasian, or european american"11,#b5eaa1,personality,have a personality -- like when someone is shy and somebody else is silly,yes,1,0,17043,robot,a robot,CF02,6.426083333,JMZ,CF,,NA,run_01,8.269444444,m,yes,"russian, german, egnlish","white, caucasian, or european american"12,#bfd6fa,pride,feel proud,yes,1,0,10469,robot,a robot,CF02,6.426083333,JMZ,CF,,NA,run_01,8.269444444,m,yes,"russian, german, egnlish","white, caucasian, or european american"13,#d0d9ae,love,feel love,no,0,0,6253,robot,a robot,CF02,6.426083333,JMZ,CF,,NA,run_01,8.269444444,m,yes,"russian, german, egnlish","white, caucasian, or european american"14,#b4dbe7,intentions,make plans,yes,1,0,9125,robot,a robot,CF02,6.426083333,JMZ,CF,,NA,run_01,8.269444444,m,yes,"russian, german, egnlish","white, caucasian, or european american"15,#f0d9a2,conscious,be aware of things,no,0,0,7397,robot,a robot,CF02,6.426083333,JMZ,CF,,NA,run_01,8.269444444,m,yes,"russian, german, egnlish","white, caucasian, or european american"16,#97eca5,depressed,feel sad,no,0,0,10667,robot,a robot,CF02,6.426083333,JMZ,CF,,NA,run_01,8.269444444,m,yes,"russian, german, egnlish","white, caucasian, or european american"17,#f2cdb9,temperature,sense temperatures,no,0,0,6575,robot,a robot,CF02,6.426083333,JMZ,CF,,NA,run_01,8.269444444,m,yes,"russian, german, egnlish","white, caucasian, or european american"18,#fde096,free_will,decide what to do,yes,1,0,8001,robot,a robot,CF02,6.426083333,JMZ,CF,,NA,run_01,8.269444444,m,yes,"russian, german, egnlish","white, caucasian, or european american"19,#fdcc93,tired,feel tired,no,0,0,7577,robot,a robot,CF02,6.426083333,JMZ,CF,,NA,run_01,8.269444444,m,yes,"russian, german, egnlish","white, caucasian, or european american"20,#5ef2da,nauseated,feel sick -- like when you feel like you might throw up,no,0,0,11326,robot,a robot,CF02,6.426083333,JMZ,CF,"said ""yeah"" at first but then switched quickly to ""no""",NA,run_01,8.269444444,m,yes,"russian, german, egnlish","white, caucasian, or european american"21,#d5d0fa,odors,smell things,no,0,0,7669,robot,a robot,CF02,6.426083333,JMZ,CF,,NA,run_01,8.269444444,m,yes,"russian, german, egnlish","white, caucasian, or european american"22,#d0e0c8,angry,get angry,yes,1,0,12104,robot,a robot,CF02,6.426083333,JMZ,CF,,NA,run_01,8.269444444,m,yes,"russian, german, egnlish","white, caucasian, or european american"23,#ead1ec,self_aware,be aware of itself,no,0,0,7445,robot,a robot,CF02,6.426083333,JMZ,CF,,NA,run_01,8.269444444,m,yes,"russian, german, egnlish","white, caucasian, or european american"24,#3eeaef,sounds,hear sounds,yes,1,0,5651,robot,a robot,CF02,6.426083333,JMZ,CF,,NA,run_01,8.269444444,m,yes,"russian, german, egnlish","white, caucasian, or european american"25,#a7dcf9,guilt,feel guilty,no,0,0,5799,robot,a robot,CF02,6.426083333,JMZ,CF,,NA,run_01,8.269444444,m,yes,"russian, german, egnlish","white, caucasian, or european american"26,#8cf2c3,hungry,get hungry,no,0,0,5057,robot,a robot,CF02,6.426083333,JMZ,CF,,NA,run_01,8.269444444,m,yes,"russian, german, egnlish","white, caucasian, or european american"27,#c2e9f5,communicating,communicate with somebody else,yes,1,0,10993,robot,a robot,CF02,6.426083333,JMZ,CF,,NA,run_01,8.269444444,m,yes,"russian, german, egnlish","white, caucasian, or european american"28,#f3d0d9,joy,feel joy,yes,1,0,7773,robot,a robot,CF02,6.426083333,JMZ,CF,,NA,run_01,8.269444444,m,yes,"russian, german, egnlish","white, caucasian, or european american"29,#aceab4,seeing,see things,yes,1,0,5807,robot,a robot,CF02,6.426083333,JMZ,CF,,NA,run_01,8.269444444,m,yes,"russian, german, egnlish","white, caucasian, or european american"30,#bce98d,computations,do math,yes,1,0,5410,robot,a robot,CF02,6.426083333,JMZ,CF,,NA,run_01,8.269444444,m,yes,"russian, german, egnlish","white, caucasian, or european american"31,#9be4c0,reasoning,figure out how to do things,yes,1,0,6716,robot,a robot,CF02,6.426083333,JMZ,CF,,NA,run_01,8.269444444,m,yes,"russian, german, egnlish","white, caucasian, or european american"32,#e3df8e,calm,feel calm,yes,1,0,6876,robot,a robot,CF02,6.426083333,JMZ,CF,,NA,run_01,8.269444444,m,yes,"russian, german, egnlish","white, caucasian, or european american"33,#79e3f9,pleasure,feel pleasure -- like when something feels really good,yes,1,0,10395,robot,a robot,CF02,6.426083333,JMZ,CF,,NA,run_01,8.269444444,m,yes,"russian, german, egnlish","white, caucasian, or european american"34,#e3dbc8,self_restraint,have self-control -- like when you stop yourself from doing something you shouldn't do,yes,1,0,8118,robot,a robot,CF02,6.426083333,JMZ,CF,,NA,run_01,8.269444444,m,yes,"russian, german, egnlish","white, caucasian, or european american"35,#bae6c8,choices,make choices,yes,1,0,6014,robot,a robot,CF02,6.426083333,JMZ,CF,,NA,run_01,8.269444444,m,yes,"russian, german, egnlish","white, caucasian, or european american"36,#dedfa2,remembering,remember things,yes,1,0,5420,robot,a robot,CF02,6.426083333,JMZ,CF,,NA,run_01,8.269444444,m,yes,"russian, german, egnlish","white, caucasian, or european american"37,#f0d27e,happy,feel happy,yes,1,0,7174,robot,a robot,CF02,6.426083333,JMZ,CF,,NA,run_01,8.269444444,m,yes,"russian, german, egnlish","white, caucasian, or european american"38,#fddbd0,recognizing,recognize somebody else,yes,1,0,7626,robot,a robot,CF02,6.426083333,JMZ,CF,,NA,run_01,8.269444444,m,yes,"russian, german, egnlish","white, caucasian, or european american"39,#c3e5b5,embarrassed,feel embarrassed,no,0,0,8107,robot,a robot,CF02,6.426083333,JMZ,CF,,NA,run_01,8.269444444,m,yes,"russian, german, egnlish","white, caucasian, or european american"40,#dee7bc,beliefs,have beliefs -- like when you think something is true,yes,1,0,12051,robot,a robot,CF02,6.426083333,JMZ,CF,,NA,run_01,8.269444444,m,yes,"russian, german, egnlish","white, caucasian, or european american"1,#d5d0fa,fear,feel scared,yes,1,553,3794,beetle,a beetle,CF03,3.172616667,JMZ,CF,,NA,run_01,9.102777778,m,yes,"english, chinese",NA2,#fdcc93,intentions,make plans,no,0,0,9994,beetle,a beetle,CF03,3.172616667,JMZ,CF,,NA,run_01,9.102777778,m,yes,"english, chinese",NA3,#9be4c0,odors,smell things,yes,1,0,4241,beetle,a beetle,CF03,3.172633333,JMZ,CF,,NA,run_01,9.102777778,m,yes,"english, chinese",NA4,#a9e7e4,remembering,remember things,yes,1,0,4444,beetle,a beetle,CF03,3.172633333,JMZ,CF,,NA,run_01,9.102777778,m,yes,"english, chinese",NA5,#bae6c8,depressed,feel sad,yes,1,0,5526,beetle,a beetle,CF03,3.172633333,JMZ,CF,,NA,run_01,9.102777778,m,yes,"english, chinese",NA6,#bce98d,disrespected,get hurt feelings,kinda,0.5,0,6970,beetle,a beetle,CF03,3.172633333,JMZ,CF,,NA,run_01,9.102777778,m,yes,"english, chinese",NA7,#64f8f4,morality,know what's nice and what's mean,kinda,0.5,0,4870,beetle,a beetle,CF03,3.172633333,JMZ,CF,,NA,run_01,9.102777778,m,yes,"english, chinese",NA8,#8cf2c3,calm,feel calm,kinda,0.5,0,9408,beetle,a beetle,CF03,3.172633333,JMZ,CF,,NA,run_01,9.102777778,m,yes,"english, chinese",NA9,#c2e9f5,depth,sense whether something is close by or far away,yes,1,0,5295,beetle,a beetle,CF03,3.172633333,JMZ,CF,,NA,run_01,9.102777778,m,yes,"english, chinese",NA10,#a7dcf9,happy,feel happy,yes,1,0,3834,beetle,a beetle,CF03,3.172633333,JMZ,CF,,NA,run_01,9.102777778,m,yes,"english, chinese",NA11,#fddbd0,pleasure,feel pleasure -- like when something feels really good,yes,1,0,6391,beetle,a beetle,CF03,3.172633333,JMZ,CF,,NA,run_01,9.102777778,m,yes,"english, chinese",NA12,#5ef2da,temperature,sense temperatures,yes,1,0,9367,beetle,a beetle,CF03,3.172633333,JMZ,CF,,NA,run_01,9.102777778,m,yes,"english, chinese",NA13,#b5eaa1,choices,make choices,no,0,0,3234,beetle,a beetle,CF03,3.172633333,JMZ,CF,,NA,run_01,9.102777778,m,yes,"english, chinese",NA14,#f0d9a2,embarrassed,feel embarrassed,no,0,0,2678,beetle,a beetle,CF03,3.172633333,JMZ,CF,,NA,run_01,9.102777778,m,yes,"english, chinese",NA15,#cae5a1,safe,feel safe,yes,1,0,2509,beetle,a beetle,CF03,3.172633333,JMZ,CF,,NA,run_01,9.102777778,m,yes,"english, chinese",NA16,#fde096,emo_recog,understand how somebody else is feeling,kinda,0.5,0,3723,beetle,a beetle,CF03,3.172633333,JMZ,CF,,NA,run_01,9.102777778,m,yes,"english, chinese",NA17,#dedfa2,hungry,get hungry,yes,1,0,3909,beetle,a beetle,CF03,3.172633333,JMZ,CF,,NA,run_01,9.102777778,m,yes,"english, chinese",NA18,#f2cdb9,joy,feel joy,yes,1,0,2077,beetle,a beetle,CF03,3.172633333,JMZ,CF,,NA,run_01,9.102777778,m,yes,"english, chinese",NA19,#cde8e2,pain,feel pain,yes,1,0,1300,beetle,a beetle,CF03,3.172633333,JMZ,CF,,NA,run_01,9.102777778,m,yes,"english, chinese",NA20,#d0e0c8,personality,have a personality -- like when someone is shy and somebody else is silly,kinda,0.5,28106,6864,beetle,a beetle,CF03,3.172633333,JMZ,CF,,NA,run_01,9.102777778,m,yes,"english, chinese",NA21,#84eced,beliefs,have beliefs -- like when you think something is true,kinda,0.5,0,4782,beetle,a beetle,CF03,3.172633333,JMZ,CF,,NA,run_01,9.102777778,m,yes,"english, chinese",NA22,#f3c5fa,seeing,see things,yes,1,0,2609,beetle,a beetle,CF03,3.172633333,JMZ,CF,,NA,run_01,9.102777778,m,yes,"english, chinese",NA23,#d1e48e,guilt,feel guilty,kinda,0.5,0,4298,beetle,a beetle,CF03,3.172633333,JMZ,CF,,NA,run_01,9.102777778,m,yes,"english, chinese",NA24,#f0d27e,pride,feel proud,kinda,0.5,0,1901,beetle,a beetle,CF03,3.172633333,JMZ,CF,,NA,run_01,9.102777778,m,yes,"english, chinese",NA25,#97eca5,nauseated,feel sick -- like when you feel like you might throw up,kinda,0.5,0,4982,beetle,a beetle,CF03,3.172633333,JMZ,CF,,NA,run_01,9.102777778,m,yes,"english, chinese",NA26,#a9f2ce,goal,have goals -- like when you're working hard to do something or make something happen,yes,1,0,5134,beetle,a beetle,CF03,3.172633333,JMZ,CF,,NA,run_01,9.102777778,m,yes,"english, chinese",NA27,#ead1ec,love,feel love,yes,1,0,2624,beetle,a beetle,CF03,3.172633333,JMZ,CF,,NA,run_01,9.102777778,m,yes,"english, chinese",NA28,#d2dcee,sounds,hear sounds,yes,1,0,1271,beetle,a beetle,CF03,3.172633333,JMZ,CF,,NA,run_01,9.102777778,m,yes,"english, chinese",NA29,#bfd6fa,computations,do math,no,0,0,2022,beetle,a beetle,CF03,3.172633333,JMZ,CF,laughed,NA,run_01,9.102777778,m,yes,"english, chinese",NA30,#dee7bc,tired,feel tired,yes,1,0,1948,beetle,a beetle,CF03,3.172633333,JMZ,CF,,NA,run_01,9.102777778,m,yes,"english, chinese",NA31,#79e3f9,self_aware,be aware of itself,yes,1,0,1510,beetle,a beetle,CF03,3.172633333,JMZ,CF,,NA,run_01,9.102777778,m,yes,"english, chinese",NA32,#94ebda,reasoning,figure out how to do things,yes,1,0,4915,beetle,a beetle,CF03,3.172633333,JMZ,CF,,NA,run_01,9.102777778,m,yes,"english, chinese",NA33,#b4dbe7,communicating,communicate with somebody else,yes,1,0,3138,beetle,a beetle,CF03,3.172633333,JMZ,CF,,NA,run_01,9.102777778,m,yes,"english, chinese",NA34,#aceab4,thoughts,have thoughts,yes,1,0,1595,beetle,a beetle,CF03,3.172633333,JMZ,CF,,NA,run_01,9.102777778,m,yes,"english, chinese",NA35,#d0d9ae,recognizing,recognize somebody else,yes,1,0,2029,beetle,a beetle,CF03,3.172633333,JMZ,CF,,NA,run_01,9.102777778,m,yes,"english, chinese",NA36,#e3df8e,angry,get angry,kinda,0.5,0,1490,beetle,a beetle,CF03,3.172633333,JMZ,CF,,NA,run_01,9.102777778,m,yes,"english, chinese",NA37,#f3d0d9,free_will,decide what to do,yes,1,0,2864,beetle,a beetle,CF03,3.172633333,JMZ,CF,,NA,run_01,9.102777778,m,yes,"english, chinese",NA38,#e3d3af,conscious,be aware of things,yes,1,0,2672,beetle,a beetle,CF03,3.172633333,JMZ,CF,,NA,run_01,9.102777778,m,yes,"english, chinese",NA39,#c3e5b5,self_restraint,have self-control -- like when you stop yourself from doing something you shouldn't do,kinda,0.5,0,6879,beetle,a beetle,CF03,3.172633333,JMZ,CF,,NA,run_01,9.102777778,m,yes,"english, chinese",NA40,#e3dbc8,desires,have desires -- like when you really want something,yes,1,0,6563,beetle,a beetle,CF03,3.172633333,JMZ,CF,,NA,run_01,9.102777778,m,yes,"english, chinese",NA1,#79e3f9,happy,feel happy,yes,1,0,7680,robot,a robot,CF04,5.420616667,Tech,CF,,NA,run_01,11.62222222,f,no,english,"east asian; white, caucasian, or european american"2,#fddbd0,beliefs,have beliefs -- like when you think something is true,yes,1,0,7449,robot,a robot,CF04,5.420633333,Tech,CF,,NA,run_01,11.62222222,f,no,english,"east asian; white, caucasian, or european american"3,#bae6c8,temperature,sense temperatures,yes,1,0,6867,robot,a robot,CF04,5.420633333,Tech,CF,,NA,run_01,11.62222222,f,no,english,"east asian; white, caucasian, or european american"4,#f3c5fa,joy,feel joy,yes,1,0,6559,robot,a robot,CF04,5.420633333,Tech,CF,,NA,run_01,11.62222222,f,no,english,"east asian; white, caucasian, or european american"5,#ead1ec,thoughts,have thoughts,yes,1,0,5891,robot,a robot,CF04,5.420633333,Tech,CF,,NA,run_01,11.62222222,f,no,english,"east asian; white, caucasian, or european american"6,#c3e5b5,computations,do math,yes,1,0,6486,robot,a robot,CF04,5.420633333,Tech,CF,,NA,run_01,11.62222222,f,no,english,"east asian; white, caucasian, or european american"7,#f0d27e,choices,make choices,yes,1,0,5831,robot,a robot,CF04,5.420633333,Tech,CF,,NA,run_01,11.62222222,f,no,english,"east asian; white, caucasian, or european american"8,#8cf2c3,hungry,get hungry,no,0,0,5442,robot,a robot,CF04,5.420633333,Tech,CF,,NA,run_01,11.62222222,f,no,english,"east asian; white, caucasian, or european american"9,#f0d9a2,guilt,feel guilty,yes,1,0,5911,robot,a robot,CF04,5.420633333,Tech,CF,,NA,run_01,11.62222222,f,no,english,"east asian; white, caucasian, or european american"10,#d5d0fa,conscious,be aware of things,kinda,0.5,0,9766,robot,a robot,CF04,5.420633333,Tech,CF,,NA,run_01,11.62222222,f,no,english,"east asian; white, caucasian, or european american"11,#cde8e2,desires,have desires -- like when you really want something,yes,1,0,7648,robot,a robot,CF04,5.420633333,Tech,CF,,NA,run_01,11.62222222,f,no,english,"east asian; white, caucasian, or european american"12,#fde096,pride,feel proud,yes,1,0,5798,robot,a robot,CF04,5.420633333,Tech,CF,,NA,run_01,11.62222222,f,no,english,"east asian; white, caucasian, or european american"13,#d2dcee,intentions,make plans,yes,1,0,6013,robot,a robot,CF04,5.420633333,Tech,CF,,NA,run_01,11.62222222,f,no,english,"east asian; white, caucasian, or european american"14,#5ef2da,self_aware,be aware of itself,yes,1,0,5576,robot,a robot,CF04,5.420633333,Tech,CF,,NA,run_01,11.62222222,f,no,english,"east asian; white, caucasian, or european american"15,#f2cdb9,depressed,feel sad,yes,1,0,6844,robot,a robot,CF04,5.420633333,Tech,CF,,NA,run_01,11.62222222,f,no,english,"east asian; white, caucasian, or european american"16,#94ebda,remembering,remember things,yes,1,0,5662,robot,a robot,CF04,5.420633333,Tech,CF,,NA,run_01,11.62222222,f,no,english,"east asian; white, caucasian, or european american"17,#9be4c0,morality,know what's nice and what's mean,yes,1,0,6469,robot,a robot,CF04,5.420633333,Tech,CF,,NA,run_01,11.62222222,f,no,english,"east asian; white, caucasian, or european american"18,#f3d0d9,embarrassed,feel embarrassed,yes,1,0,5561,robot,a robot,CF04,5.420633333,Tech,CF,,NA,run_01,11.62222222,f,no,english,"east asian; white, caucasian, or european american"19,#bfd6fa,seeing,see things,yes,0.5,0,11257,robot,a robot,CF04,5.420633333,Tech,CF,"said ""kinda"" first but changed answer to ""yes""",NA,run_01,11.62222222,f,no,english,"east asian; white, caucasian, or european american"20,#e3df8e,sounds,hear sounds,kinda,0.5,0,6438,robot,a robot,CF04,5.420633333,Tech,CF,,NA,run_01,11.62222222,f,no,english,"east asian; white, caucasian, or european american"21,#e3dbc8,fear,feel scared,yes,1,0,9208,robot,a robot,CF04,5.420633333,Tech,CF,,NA,run_01,11.62222222,f,no,english,"east asian; white, caucasian, or european american"22,#d1e48e,angry,get angry,yes,1,0,5565,robot,a robot,CF04,5.420633333,Tech,CF,,NA,run_01,11.62222222,f,no,english,"east asian; white, caucasian, or european american"23,#64f8f4,pain,feel pain,no,0,0,5192,robot,a robot,CF04,5.420633333,Tech,CF,,NA,run_01,11.62222222,f,no,english,"east asian; white, caucasian, or european american"24,#dee7bc,disrespected,get hurt feelings,yes,1,0,6910,robot,a robot,CF04,5.420633333,Tech,CF,,NA,run_01,11.62222222,f,no,english,"east asian; white, caucasian, or european american"25,#dedfa2,odors,smell things,no,0,0,6858,robot,a robot,CF04,5.420633333,Tech,CF,,NA,run_01,11.62222222,f,no,english,"east asian; white, caucasian, or european american"26,#84eced,free_will,decide what to do,yes,1,0,6293,robot,a robot,CF04,5.420633333,Tech,CF,,NA,run_01,11.62222222,f,no,english,"east asian; white, caucasian, or european american"27,#d0e0c8,self_restraint,have self-control -- like when you stop yourself from doing something you shouldn't do,yes,1,0,11002,robot,a robot,CF04,5.420633333,Tech,CF,,NA,run_01,11.62222222,f,no,english,"east asian; white, caucasian, or european american"28,#fdcc93,depth,sense whether something is close by or far away,yes,1,0,6873,robot,a robot,CF04,5.420633333,Tech,CF,,NA,run_01,11.62222222,f,no,english,"east asian; white, caucasian, or european american"29,#cae5a1,emo_recog,understand how somebody else is feeling,yes,1,0,9417,robot,a robot,CF04,5.420633333,Tech,CF,,NA,run_01,11.62222222,f,no,english,"east asian; white, caucasian, or european american"30,#a7dcf9,communicating,communicate with somebody else,yes,1,0,6603,robot,a robot,CF04,5.420633333,Tech,CF,,NA,run_01,11.62222222,f,no,english,"east asian; white, caucasian, or european american"31,#aceab4,recognizing,recognize somebody else,yes,1,0,5784,robot,a robot,CF04,5.420633333,Tech,CF,,NA,run_01,11.62222222,f,no,english,"east asian; white, caucasian, or european american"32,#a9e7e4,reasoning,figure out how to do things,yes,1,0,5319,robot,a robot,CF04,5.420633333,Tech,CF,,NA,run_01,11.62222222,f,no,english,"east asian; white, caucasian, or european american"33,#e3d3af,tired,feel tired,kinda,0.5,0,7486,robot,a robot,CF04,5.420633333,Tech,CF,,NA,run_01,11.62222222,f,no,english,"east asian; white, caucasian, or european american"34,#3eeaef,calm,feel calm,yes,1,0,5705,robot,a robot,CF04,5.420633333,Tech,CF,,NA,run_01,11.62222222,f,no,english,"east asian; white, caucasian, or european american"35,#f2e1bc,nauseated,feel sick -- like when you feel like you might throw up,no,0,0,7168,robot,a robot,CF04,5.420633333,Tech,CF,,NA,run_01,11.62222222,f,no,english,"east asian; white, caucasian, or european american"36,#b4dbe7,goal,have goals -- like when you're working hard to do something or make something happen,yes,1,0,10179,robot,a robot,CF04,5.420633333,Tech,CF,,NA,run_01,11.62222222,f,no,english,"east asian; white, caucasian, or european american"37,#b5eaa1,love,feel love,no,0,0,6300,robot,a robot,CF04,5.420633333,Tech,CF,"said ""kinda"" first then changed to ""no""",NA,run_01,11.62222222,f,no,english,"east asian; white, caucasian, or european american"38,#c2e9f5,safe,feel safe,yes,1,0,15765,robot,a robot,CF04,5.420633333,Tech,CF,,NA,run_01,11.62222222,f,no,english,"east asian; white, caucasian, or european american"39,#97eca5,pleasure,feel pleasure -- like when something feels really good,yes,1,0,9909,robot,a robot,CF04,5.420633333,Tech,CF,,NA,run_01,11.62222222,f,no,english,"east asian; white, caucasian, or european american"40,#bce98d,personality,have a personality -- like when someone is shy and somebody else is silly,yes,1,0,11080,robot,a robot,CF04,5.420633333,Tech,CF,,NA,run_01,11.62222222,f,no,english,"east asian; white, caucasian, or european american"1,#b4dbe7,guilt,feel guilty,no,0,0,10797,robot,a robot,CF05,5.316266667,Tech,CF,NA,NA,run_01,8.386111111,f,no,english,"white, caucasian, or european american"2,#c2e9f5,embarrassed,feel embarrassed,no,0,0,10530,robot,a robot,CF05,5.316266667,Tech,CF,NA,NA,run_01,8.386111111,f,no,english,"white, caucasian, or european american"3,#e3d3af,safe,feel safe,yes,1,0,7092,robot,a robot,CF05,5.316266667,Tech,CF,NA,NA,run_01,8.386111111,f,no,english,"white, caucasian, or european american"4,#e3dbc8,temperature,sense temperatures,yes,1,0,7419,robot,a robot,CF05,5.316266667,Tech,CF,NA,NA,run_01,8.386111111,f,no,english,"white, caucasian, or european american"5,#a9f2ce,calm,feel calm,kinda,0.5,0,5866,robot,a robot,CF05,5.316266667,Tech,CF,NA,NA,run_01,8.386111111,f,no,english,"white, caucasian, or european american"6,#c3e5b5,joy,feel joy,kinda,0.5,0,8747,robot,a robot,CF05,5.316266667,Tech,CF,NA,NA,run_01,8.386111111,f,no,english,"white, caucasian, or european american"7,#f2cdb9,remembering,remember things,yes,1,0,5528,robot,a robot,CF05,5.316266667,Tech,CF,NA,NA,run_01,8.386111111,f,no,english,"white, caucasian, or european american"8,#e3df8e,goal,have goals -- like when you're working hard to do something or make something happen,yes,1,0,9865,robot,a robot,CF05,5.316266667,Tech,CF,NA,NA,run_01,8.386111111,f,no,english,"white, caucasian, or european american"9,#79e3f9,reasoning,figure out how to do things,yes,1,0,6494,robot,a robot,CF05,5.316266667,Tech,CF,NA,NA,run_01,8.386111111,f,no,english,"white, caucasian, or european american"10,#84eced,morality,know what's nice and what's mean,yes,1,0,7737,robot,a robot,CF05,5.316266667,Tech,CF,NA,NA,run_01,8.386111111,f,no,english,"white, caucasian, or european american"11,#97eca5,sounds,hear sounds,no,0,0,6692,robot,a robot,CF05,5.316266667,Tech,CF,NA,NA,run_01,8.386111111,f,no,english,"white, caucasian, or european american"12,#5ef2da,personality,have a personality -- like when someone is shy and somebody else is silly,yes,1,0,9952,robot,a robot,CF05,5.316266667,Tech,CF,NA,NA,run_01,8.386111111,f,no,english,"white, caucasian, or european american"13,#bae6c8,computations,do math,kinda,0.5,0,6695,robot,a robot,CF05,5.316266667,Tech,CF,NA,NA,run_01,8.386111111,f,no,english,"white, caucasian, or european american"14,#f3d0d9,intentions,make plans,yes,1,0,6299,robot,a robot,CF05,5.316266667,Tech,CF,NA,NA,run_01,8.386111111,f,no,english,"white, caucasian, or european american"15,#f2e1bc,love,feel love,no,0,0,5459,robot,a robot,CF05,5.316266667,Tech,CF,NA,NA,run_01,8.386111111,f,no,english,"white, caucasian, or european american"16,#d2dcee,self_aware,be aware of itself,yes,1,0,6859,robot,a robot,CF05,5.316266667,Tech,CF,NA,NA,run_01,8.386111111,f,no,english,"white, caucasian, or european american"17,#3eeaef,fear,feel scared,yes,1,0,6885,robot,a robot,CF05,5.316266667,Tech,CF,NA,NA,run_01,8.386111111,f,no,english,"white, caucasian, or european american"18,#a7dcf9,angry,get angry,kinda,0.5,0,6190,robot,a robot,CF05,5.316266667,Tech,CF,NA,NA,run_01,8.386111111,f,no,english,"white, caucasian, or european american"19,#f3c5fa,free_will,decide what to do,yes,1,0,6773,robot,a robot,CF05,5.316266667,Tech,CF,NA,NA,run_01,8.386111111,f,no,english,"white, caucasian, or european american"20,#aceab4,recognizing,recognize somebody else,yes,1,0,7761,robot,a robot,CF05,5.316266667,Tech,CF,NA,NA,run_01,8.386111111,f,no,english,"white, caucasian, or european american"21,#d0d9ae,conscious,be aware of things,yes,1,0,5586,robot,a robot,CF05,5.316266667,Tech,CF,NA,NA,run_01,8.386111111,f,no,english,"white, caucasian, or european american"22,#f0d27e,nauseated,feel sick -- like when you feel like you might throw up,no,0,0,8476,robot,a robot,CF05,5.316266667,Tech,CF,NA,NA,run_01,8.386111111,f,no,english,"white, caucasian, or european american"23,#8cf2c3,depth,sense whether something is close by or far away,kinda,0.5,0,8382,robot,a robot,CF05,5.316266667,Tech,CF,NA,NA,run_01,8.386111111,f,no,english,"white, caucasian, or european american"24,#f0d9a2,pride,feel proud,yes,1,0,6989,robot,a robot,CF05,5.316266667,Tech,CF,NA,NA,run_01,8.386111111,f,no,english,"white, caucasian, or european american"25,#cae5a1,disrespected,get hurt feelings,yes,1,0,5737,robot,a robot,CF05,5.316266667,Tech,CF,NA,NA,run_01,8.386111111,f,no,english,"white, caucasian, or european american"26,#d1e48e,odors,smell things,no,0,0,5045,robot,a robot,CF05,5.316266667,Tech,CF,NA,NA,run_01,8.386111111,f,no,english,"white, caucasian, or european american"27,#dedfa2,pain,feel pain,no,0,0,7666,robot,a robot,CF05,5.316266667,Tech,CF,NA,NA,run_01,8.386111111,f,no,english,"white, caucasian, or european american"28,#fde096,beliefs,have beliefs -- like when you think something is true,yes,1,0,10307,robot,a robot,CF05,5.316266667,Tech,CF,NA,NA,run_01,8.386111111,f,no,english,"white, caucasian, or european american"29,#cde8e2,seeing,see things,yes,1,0,5714,robot,a robot,CF05,5.316266667,Tech,CF,NA,NA,run_01,8.386111111,f,no,english,"white, caucasian, or european american"30,#b5eaa1,pleasure,feel pleasure -- like when something feels really good,kinda,0.5,0,8819,robot,a robot,CF05,5.316266667,Tech,CF,NA,NA,run_01,8.386111111,f,no,english,"white, caucasian, or european american"31,#64f8f4,hungry,get hungry,no,0,0,5713,robot,a robot,CF05,5.316266667,Tech,CF,NA,NA,run_01,8.386111111,f,no,english,"white, caucasian, or european american"32,#fddbd0,choices,make choices,kinda,0.5,0,7784,robot,a robot,CF05,5.316266667,Tech,CF,NA,NA,run_01,8.386111111,f,no,english,"white, caucasian, or european american"33,#bfd6fa,self_restraint,have self-control -- like when you stop yourself from doing something you shouldn't do,yes,1,0,9869,robot,a robot,CF05,5.316266667,Tech,CF,NA,NA,run_01,8.386111111,f,no,english,"white, caucasian, or european american"34,#d0e0c8,emo_recog,understand how somebody else is feeling,kinda,0.5,0,6676,robot,a robot,CF05,5.316266667,Tech,CF,NA,NA,run_01,8.386111111,f,no,english,"white, caucasian, or european american"35,#ead1ec,happy,feel happy,yes,1,0,6112,robot,a robot,CF05,5.316266667,Tech,CF,NA,NA,run_01,8.386111111,f,no,english,"white, caucasian, or european american"36,#bce98d,tired,feel tired,yes,1,0,5864,robot,a robot,CF05,5.316266667,Tech,CF,NA,NA,run_01,8.386111111,f,no,english,"white, caucasian, or european american"37,#dee7bc,desires,have desires -- like when you really want something,kinda,0.5,0,7752,robot,a robot,CF05,5.316266667,Tech,CF,NA,NA,run_01,8.386111111,f,no,english,"white, caucasian, or european american"38,#fdcc93,depressed,feel sad,yes,1,0,6414,robot,a robot,CF05,5.316266667,Tech,CF,NA,NA,run_01,8.386111111,f,no,english,"white, caucasian, or european american"39,#a9e7e4,thoughts,have thoughts,yes,1,0,5579,robot,a robot,CF05,5.316266667,Tech,CF,NA,NA,run_01,8.386111111,f,no,english,"white, caucasian, or european american"40,#d5d0fa,communicating,communicate with somebody else,kinda,0.5,0,7896,robot,a robot,CF05,5.316266667,Tech,CF,NA,NA,run_01,8.386111111,f,no,english,"white, caucasian, or european american"1,#97eca5,desires,have desires -- like when you really want something,yes,1,0,54061,robot,a robot,CF06,8.244033333,Tech,CF,"parent said ""like do you think robots can think"" to clarify question",NA,run_01,7.133333333,f,yes,"chinese, english",east asian2,#f3d0d9,tired,feel tired,no,0,0,11513,robot,a robot,CF06,8.244033333,Tech,CF,,NA,run_01,7.133333333,f,yes,"chinese, english",east asian3,#cde8e2,calm,feel calm,yes,1,1960,27702,robot,a robot,CF06,8.244033333,Tech,CF,,NA,run_01,7.133333333,f,yes,"chinese, english",east asian4,#e3df8e,emo_recog,understand how somebody else is feeling,kinda,0.5,0,17048,robot,a robot,CF06,8.244033333,Tech,CF,,NA,run_01,7.133333333,f,yes,"chinese, english",east asian5,#cae5a1,morality,know what's nice and what's mean,yes,1,0,9434,robot,a robot,CF06,8.244033333,Tech,CF,,NA,run_01,7.133333333,f,yes,"chinese, english",east asian6,#d0d9ae,self_restraint,have self-control -- like when you stop yourself from doing something you shouldn't do,yes,1,0,12008,robot,a robot,CF06,8.244033333,Tech,CF,,NA,run_01,7.133333333,f,yes,"chinese, english",east asian7,#3eeaef,sounds,hear sounds,no,0,0,9802,robot,a robot,CF06,8.244033333,Tech,CF,,NA,run_01,7.133333333,f,yes,"chinese, english",east asian8,#d5d0fa,pride,feel proud,yes,1,0,7548,robot,a robot,CF06,8.244033333,Tech,CF,,NA,run_01,7.133333333,f,yes,"chinese, english",east asian9,#84eced,thoughts,have thoughts,kinda,0.5,0,8325,robot,a robot,CF06,8.244033333,Tech,CF,,NA,run_01,7.133333333,f,yes,"chinese, english",east asian10,#c3e5b5,conscious,be aware of things,no,0,0,19596,robot,a robot,CF06,8.244033333,Tech,CF,,NA,run_01,7.133333333,f,yes,"chinese, english",east asian11,#f3c5fa,love,feel love,yes,1,0,6857,robot,a robot,CF06,8.244033333,Tech,CF,,NA,run_01,7.133333333,f,yes,"chinese, english",east asian12,#b5eaa1,communicating,communicate with somebody else,yes,1,0,10298,robot,a robot,CF06,8.244033333,Tech,CF,,NA,run_01,7.133333333,f,yes,"chinese, english",east asian13,#5ef2da,goal,have goals -- like when you're working hard to do something or make something happen,yes,1,0,25707,robot,a robot,CF06,8.244033333,Tech,CF,,NA,run_01,7.133333333,f,yes,"chinese, english",east asian14,#9be4c0,guilt,feel guilty,no,0,6289,13912,robot,a robot,CF06,8.244033333,Tech,CF,,NA,run_01,7.133333333,f,yes,"chinese, english",east asian15,#d2dcee,pleasure,feel pleasure -- like when something feels really good,yes,1,0,12577,robot,a robot,CF06,8.244033333,Tech,CF,,NA,run_01,7.133333333,f,yes,"chinese, english",east asian16,#e3d3af,happy,feel happy,yes,1,0,6235,robot,a robot,CF06,8.244033333,Tech,CF,,NA,run_01,7.133333333,f,yes,"chinese, english",east asian17,#fdcc93,nauseated,feel sick -- like when you feel like you might throw up,no,0,0,9974,robot,a robot,CF06,8.244033333,Tech,CF,,NA,run_01,7.133333333,f,yes,"chinese, english",east asian18,#d1e48e,fear,feel scared,no,0,0,6881,robot,a robot,CF06,8.244033333,Tech,CF,,NA,run_01,7.133333333,f,yes,"chinese, english",east asian19,#ead1ec,odors,smell things,no,0,0,5354,robot,a robot,CF06,8.244033333,Tech,CF,,NA,run_01,7.133333333,f,yes,"chinese, english",east asian20,#f2cdb9,depressed,feel sad,yes,1,0,5512,robot,a robot,CF06,8.244033333,Tech,CF,,NA,run_01,7.133333333,f,yes,"chinese, english",east asian21,#bce98d,free_will,decide what to do,yes,1,0,7572,robot,a robot,CF06,8.244033333,Tech,CF,,NA,run_01,7.133333333,f,yes,"chinese, english",east asian22,#fddbd0,recognizing,recognize somebody else,yes,1,0,22940,robot,a robot,CF06,8.244033333,Tech,CF,"""like somebody the robot has seen?""",NA,run_01,7.133333333,f,yes,"chinese, english",east asian23,#a9f2ce,personality,have a personality -- like when someone is shy and somebody else is silly,kinda,0.5,0,24016,robot,a robot,CF06,8.244033333,Tech,CF,,NA,run_01,7.133333333,f,yes,"chinese, english",east asian24,#f0d27e,pain,feel pain,no,0,0,7772,robot,a robot,CF06,8.244033333,Tech,CF,,NA,run_01,7.133333333,f,yes,"chinese, english",east asian25,#a9e7e4,beliefs,have beliefs -- like when you think something is true,kinda,0.5,0,9952,robot,a robot,CF06,8.244033333,Tech,CF,,NA,run_01,7.133333333,f,yes,"chinese, english",east asian26,#a7dcf9,disrespected,get hurt feelings,yes,1,0,6589,robot,a robot,CF06,8.244033333,Tech,CF,,NA,run_01,7.133333333,f,yes,"chinese, english",east asian27,#d0e0c8,safe,feel safe,no,0,0,5688,robot,a robot,CF06,8.244033333,Tech,CF,,NA,run_01,7.133333333,f,yes,"chinese, english",east asian28,#79e3f9,intentions,make plans,no,0,0,6965,robot,a robot,CF06,8.244033333,Tech,CF,,NA,run_01,7.133333333,f,yes,"chinese, english",east asian29,#f2e1bc,angry,get angry,kinda,0.5,0,10447,robot,a robot,CF06,8.244033333,Tech,CF,,NA,run_01,7.133333333,f,yes,"chinese, english",east asian30,#64f8f4,temperature,sense temperatures,no,0,0,5721,robot,a robot,CF06,8.244033333,Tech,CF,,NA,run_01,7.133333333,f,yes,"chinese, english",east asian31,#f0d9a2,self_aware,be aware of itself,no,0,0,7805,robot,a robot,CF06,8.244033333,Tech,CF,,NA,run_01,7.133333333,f,yes,"chinese, english",east asian32,#bae6c8,reasoning,figure out how to do things,yes,1,0,9364,robot,a robot,CF06,8.244033333,Tech,CF,,NA,run_01,7.133333333,f,yes,"chinese, english",east asian33,#aceab4,depth,sense whether something is close by or far away,no,0,0,8027,robot,a robot,CF06,8.24405,Tech,CF,,NA,run_01,7.133333333,f,yes,"chinese, english",east asian34,#94ebda,hungry,get hungry,no,0,0,5757,robot,a robot,CF06,8.24405,Tech,CF,,NA,run_01,7.133333333,f,yes,"chinese, english",east asian35,#fde096,joy,feel joy,yes,1,0,5846,robot,a robot,CF06,8.24405,Tech,CF,,NA,run_01,7.133333333,f,yes,"chinese, english",east asian36,#8cf2c3,embarrassed,feel embarrassed,yes,1,0,6772,robot,a robot,CF06,8.24405,Tech,CF,,NA,run_01,7.133333333,f,yes,"chinese, english",east asian37,#b4dbe7,computations,do math,yes,1,0,14204,robot,a robot,CF06,8.24405,Tech,CF,,NA,run_01,7.133333333,f,yes,"chinese, english",east asian