trialNum,bgColor,capacity,capWording,response,responseNum,hoverTime,rt,character,charWording,subid,sessionDuration,testingSite,experimenter,gender,ethnicity,trialComments,sessionComments,run,trial.comments,age1,#dedfa2,temperature,sense temperatures,yes,1,0,3906,goat,a goat,CF100,2.447,Tech,CF,f,South or Southeast Asian,,NA,run_02,NA,7.6944444442,#e3df8e,pain,feel pain,yes,1,0,5502,goat,a goat,CF100,2.447,Tech,CF,f,South or Southeast Asian,,NA,run_02,NA,7.6944444443,#a9e7e4,odors,smell things,yes,1,0,3017,goat,a goat,CF100,2.447,Tech,CF,f,South or Southeast Asian,,NA,run_02,NA,7.6944444444,#cae5a1,conscious,be aware of things,yes,1,0,3799,goat,a goat,CF100,2.447,Tech,CF,f,South or Southeast Asian,,NA,run_02,NA,7.6944444445,#97eca5,love,feel love,no,0,0,5182,goat,a goat,CF100,2.447,Tech,CF,f,South or Southeast Asian,,NA,run_02,NA,7.6944444446,#fddbd0,fear,feel scared,yes,1,0,3436,goat,a goat,CF100,2.447,Tech,CF,f,South or Southeast Asian,,NA,run_02,NA,7.6944444447,#3eeaef,choices,make choices,yes,1,0,3833,goat,a goat,CF100,2.447,Tech,CF,f,South or Southeast Asian,,NA,run_02,NA,7.6944444448,#f2cdb9,reasoning,figure out how to do things,yes,1,0,3922,goat,a goat,CF100,2.447,Tech,CF,f,South or Southeast Asian,,NA,run_02,NA,7.6944444449,#e3d3af,depth,sense whether something is close by or far away,yes,1,0,6046,goat,a goat,CF100,2.447,Tech,CF,f,South or Southeast Asian,,NA,run_02,NA,7.69444444410,#84eced,hungry,get hungry,yes,1,0,3636,goat,a goat,CF100,2.447,Tech,CF,f,South or Southeast Asian,"""of course""",NA,run_02,NA,7.69444444411,#d2dcee,tired,feel tired,yes,1,0,3489,goat,a goat,CF100,2.447,Tech,CF,f,South or Southeast Asian,laughed,NA,run_02,NA,7.69444444412,#f2e1bc,pride,feel proud,yes,1,0,3329,goat,a goat,CF100,2.447,Tech,CF,f,South or Southeast Asian,,NA,run_02,NA,7.69444444413,#fde096,remembering,remember things,yes,1,0,3199,goat,a goat,CF100,2.447,Tech,CF,f,South or Southeast Asian,,NA,run_02,NA,7.69444444414,#bfd6fa,angry,get angry,yes,1,0,2731,goat,a goat,CF100,2.447,Tech,CF,f,South or Southeast Asian,,NA,run_02,NA,7.69444444415,#bce98d,disrespected,get hurt feelings,kinda,0.5,0,3730,goat,a goat,CF100,2.447,Tech,CF,f,South or Southeast Asian,,NA,run_02,NA,7.69444444416,#f3c5fa,depressed,feel sad,yes,1,0,3590,goat,a goat,CF100,2.447,Tech,CF,f,South or Southeast Asian,,NA,run_02,NA,7.69444444417,#ead1ec,nauseated,feel sick -- like when you feel like you might throw up,kinda,0.5,0,4793,goat,a goat,CF100,2.447,Tech,CF,f,South or Southeast Asian,,NA,run_02,NA,7.69444444418,#bae6c8,guilt,feel guilty,no,0,0,3745,goat,a goat,CF100,2.447,Tech,CF,f,South or Southeast Asian,,NA,run_02,NA,7.69444444419,#5ef2da,happy,feel happy,yes,1,0,3070,goat,a goat,CF100,2.447,Tech,CF,f,South or Southeast Asian,,NA,run_02,NA,7.69444444420,#94ebda,embarrassed,feel embarrassed,no,0,0,3542,goat,a goat,CF100,2.447,Tech,CF,f,South or Southeast Asian,,NA,run_02,NA,7.6944444441,#79e3f9,embarrassed,feel embarrassed,kinda,0.5,0,6165,bird,a bird,CF101,4.339783333,Tech,CF,f,NA,,NA,run_02,NA,9.0752,#f0d27e,fear,feel scared,yes,1,0,5048,bird,a bird,CF101,4.3398,Tech,CF,f,NA,,NA,run_02,NA,9.0753,#d5d0fa,disrespected,get hurt feelings,no,0,0,5605,bird,a bird,CF101,4.3398,Tech,CF,f,NA,,NA,run_02,NA,9.0754,#fde096,temperature,sense temperatures,yes,1,0,5506,bird,a bird,CF101,4.3398,Tech,CF,f,NA,,NA,run_02,NA,9.0755,#b5eaa1,happy,feel happy,yes,1,0,4713,bird,a bird,CF101,4.3398,Tech,CF,f,NA,,NA,run_02,NA,9.0756,#dee7bc,odors,smell things,kinda,0.5,0,4625,bird,a bird,CF101,4.3398,Tech,CF,f,NA,,NA,run_02,NA,9.0757,#bfd6fa,depressed,feel sad,no,0,0,4757,bird,a bird,CF101,4.3398,Tech,CF,f,NA,,NA,run_02,NA,9.0758,#f3c5fa,pain,feel pain,yes,1,0,4470,bird,a bird,CF101,4.3398,Tech,CF,f,NA,,NA,run_02,NA,9.0759,#d1e48e,angry,get angry,yes,1,0,4435,bird,a bird,CF101,4.3398,Tech,CF,f,NA,,NA,run_02,NA,9.07510,#5ef2da,love,feel love,kinda,0.5,0,13590,bird,a bird,CF101,4.3398,Tech,CF,f,NA,"""uhhh sure?""",NA,run_02,NA,9.07511,#a7dcf9,conscious,be aware of things,yes,1,0,4191,bird,a bird,CF101,4.3398,Tech,CF,f,NA,,NA,run_02,NA,9.07512,#fdcc93,pride,feel proud,yes,1,0,5147,bird,a bird,CF101,4.3398,Tech,CF,f,NA,,NA,run_02,NA,9.07513,#64f8f4,reasoning,figure out how to do things,kinda,0.5,0,6864,bird,a bird,CF101,4.3398,Tech,CF,f,NA,,NA,run_02,NA,9.07514,#f3d0d9,guilt,feel guilty,no,0,0,4334,bird,a bird,CF101,4.3398,Tech,CF,f,NA,,NA,run_02,NA,9.07515,#d2dcee,tired,feel tired,kinda,0.5,0,5274,bird,a bird,CF101,4.3398,Tech,CF,f,NA,,NA,run_02,NA,9.07516,#c2e9f5,choices,make choices,yes,1,0,4767,bird,a bird,CF101,4.3398,Tech,CF,f,NA,,NA,run_02,NA,9.07517,#8cf2c3,depth,sense whether something is close by or far away,yes,1,0,7326,bird,a bird,CF101,4.3398,Tech,CF,f,NA,,NA,run_02,NA,9.07518,#cde8e2,hungry,get hungry,yes,1,0,4904,bird,a bird,CF101,4.3398,Tech,CF,f,NA,,NA,run_02,NA,9.07519,#e3dbc8,nauseated,feel sick -- like when you feel like you might throw up,no,0,0,7714,bird,a bird,CF101,4.3398,Tech,CF,f,NA,,NA,run_02,NA,9.07520,#bce98d,remembering,remember things,kinda,0.5,0,5340,bird,a bird,CF101,4.3398,Tech,CF,f,NA,,NA,run_02,NA,9.0751,#fdcc93,disrespected,get hurt feelings,yes,1,0,3872,mouse,a mouse,CF102,1.802316667,Tech,CF,m,East Asian,,NA,run_02,NA,9.3055555562,#94ebda,pain,feel pain,yes,1,0,3923,mouse,a mouse,CF102,1.802316667,Tech,CF,m,East Asian,,NA,run_02,NA,9.3055555563,#cde8e2,reasoning,figure out how to do things,yes,1,0,4365,mouse,a mouse,CF102,1.802316667,Tech,CF,m,East Asian,,NA,run_02,NA,9.3055555564,#d0d9ae,happy,feel happy,yes,1,0,3252,mouse,a mouse,CF102,1.802316667,Tech,CF,m,East Asian,,NA,run_02,NA,9.3055555565,#dee7bc,embarrassed,feel embarrassed,yes,1,0,4287,mouse,a mouse,CF102,1.802316667,Tech,CF,m,East Asian,,NA,run_02,NA,9.3055555566,#bae6c8,odors,smell things,yes,1,0,3121,mouse,a mouse,CF102,1.802316667,Tech,CF,m,East Asian,,NA,run_02,NA,9.3055555567,#97eca5,tired,feel tired,yes,1,0,3974,mouse,a mouse,CF102,1.802316667,Tech,CF,m,East Asian,,NA,run_02,NA,9.3055555568,#a9e7e4,love,feel love,yes,1,0,4085,mouse,a mouse,CF102,1.802316667,Tech,CF,m,East Asian,,NA,run_02,NA,9.3055555569,#bfd6fa,nauseated,feel sick -- like when you feel like you might throw up,yes,1,0,5785,mouse,a mouse,CF102,1.802316667,Tech,CF,m,East Asian,laughed,NA,run_02,NA,9.30555555610,#9be4c0,hungry,get hungry,yes,1,0,3433,mouse,a mouse,CF102,1.802316667,Tech,CF,m,East Asian,,NA,run_02,NA,9.30555555611,#dedfa2,fear,feel scared,yes,1,0,3443,mouse,a mouse,CF102,1.802316667,Tech,CF,m,East Asian,,NA,run_02,NA,9.30555555612,#d0e0c8,pride,feel proud,yes,1,0,3759,mouse,a mouse,CF102,1.802316667,Tech,CF,m,East Asian,,NA,run_02,NA,9.30555555613,#e3d3af,angry,get angry,yes,1,0,3408,mouse,a mouse,CF102,1.802316667,Tech,CF,m,East Asian,,NA,run_02,NA,9.30555555614,#bce98d,temperature,sense temperatures,yes,1,0,4534,mouse,a mouse,CF102,1.802316667,Tech,CF,m,East Asian,,NA,run_02,NA,9.30555555615,#fddbd0,depth,sense whether something is close by or far away,yes,1,0,5224,mouse,a mouse,CF102,1.802316667,Tech,CF,m,East Asian,,NA,run_02,NA,9.30555555616,#f3c5fa,conscious,be aware of things,yes,1,0,3528,mouse,a mouse,CF102,1.802316667,Tech,CF,m,East Asian,,NA,run_02,NA,9.30555555617,#e3df8e,remembering,remember things,yes,1,0,4662,mouse,a mouse,CF102,1.802316667,Tech,CF,m,East Asian,,NA,run_02,NA,9.30555555618,#e3dbc8,guilt,feel guilty,yes,1,0,3909,mouse,a mouse,CF102,1.802316667,Tech,CF,m,East Asian,,NA,run_02,NA,9.30555555619,#ead1ec,depressed,feel sad,yes,1,0,3312,mouse,a mouse,CF102,1.802316667,Tech,CF,m,East Asian,,NA,run_02,NA,9.30555555620,#a9f2ce,choices,make choices,yes,1,0,3076,mouse,a mouse,CF102,1.802316667,Tech,CF,m,East Asian,,NA,run_02,NA,9.3055555561,#f3c5fa,pain,feel pain,yes,1,0,4058,goat,a goat,CF103,1.940583333,Tech,CF,f,White,,NA,run_02,NA,9.5861111112,#d1e48e,remembering,remember things,yes,1,0,4958,goat,a goat,CF103,1.940583333,Tech,CF,f,White,,NA,run_02,NA,9.5861111113,#94ebda,guilt,feel guilty,kinda,0.5,0,3488,goat,a goat,CF103,1.940583333,Tech,CF,f,White,laughed,NA,run_02,NA,9.5861111114,#84eced,choices,make choices,yes,1,0,3269,goat,a goat,CF103,1.940583333,Tech,CF,f,White,,NA,run_02,NA,9.5861111115,#c2e9f5,embarrassed,feel embarrassed,no,0,0,3851,goat,a goat,CF103,1.940583333,Tech,CF,f,White,,NA,run_02,NA,9.5861111116,#aceab4,conscious,be aware of things,yes,1,0,3507,goat,a goat,CF103,1.940583333,Tech,CF,f,White,,NA,run_02,NA,9.5861111117,#bce98d,fear,feel scared,yes,1,0,3124,goat,a goat,CF103,1.940583333,Tech,CF,f,White,,NA,run_02,NA,9.5861111118,#bae6c8,angry,get angry,yes,1,0,3475,goat,a goat,CF103,1.940583333,Tech,CF,f,White,,NA,run_02,NA,9.5861111119,#d5d0fa,temperature,sense temperatures,yes,1,0,3648,goat,a goat,CF103,1.940583333,Tech,CF,f,White,,NA,run_02,NA,9.58611111110,#5ef2da,depth,sense whether something is close by or far away,kinda,0.5,366,7268,goat,a goat,CF103,1.940583333,Tech,CF,f,White,,NA,run_02,NA,9.58611111111,#fdcc93,odors,smell things,yes,1,0,3200,goat,a goat,CF103,1.940583333,Tech,CF,f,White,,NA,run_02,NA,9.58611111112,#e3df8e,love,feel love,kinda,0.5,0,4316,goat,a goat,CF103,1.940583333,Tech,CF,f,White,laughed,NA,run_02,NA,9.58611111113,#f3d0d9,happy,feel happy,yes,1,0,3987,goat,a goat,CF103,1.940583333,Tech,CF,f,White,,NA,run_02,NA,9.58611111114,#3eeaef,tired,feel tired,yes,1,0,3310,goat,a goat,CF103,1.940583333,Tech,CF,f,White,,NA,run_02,NA,9.58611111115,#e3d3af,hungry,get hungry,yes,1,0,3138,goat,a goat,CF103,1.940583333,Tech,CF,f,White,,NA,run_02,NA,9.58611111116,#97eca5,disrespected,get hurt feelings,no,0,0,3418,goat,a goat,CF103,1.940583333,Tech,CF,f,White,,NA,run_02,NA,9.58611111117,#d0e0c8,reasoning,figure out how to do things,yes,1,0,3490,goat,a goat,CF103,1.940583333,Tech,CF,f,White,,NA,run_02,NA,9.58611111118,#f0d27e,depressed,feel sad,kinda,0.5,0,3998,goat,a goat,CF103,1.940583333,Tech,CF,f,White,,NA,run_02,NA,9.58611111119,#f2e1bc,pride,feel proud,kinda,0.5,0,4116,goat,a goat,CF103,1.940583333,Tech,CF,f,White,,NA,run_02,NA,9.58611111120,#dedfa2,nauseated,feel sick -- like when you feel like you might throw up,yes,1,0,6816,goat,a goat,CF103,1.940583333,Tech,CF,f,White,,NA,run_02,NA,9.5861111111,#f2cdb9,tired,feel tired,yes,1,370,6327,mouse,a mouse,CF104,2.46045,Tech,CF,m,Middle Eastern,,NA,run_02,NA,8.5416666672,#d2dcee,pride,feel proud,yes,1,0,5162,mouse,a mouse,CF104,2.46045,Tech,CF,m,Middle Eastern,,NA,run_02,NA,8.5416666673,#cde8e2,disrespected,get hurt feelings,yes,1,0,8246,mouse,a mouse,CF104,2.46045,Tech,CF,m,Middle Eastern,,NA,run_02,NA,8.5416666674,#fde096,hungry,get hungry,yes,1,0,3225,mouse,a mouse,CF104,2.46045,Tech,CF,m,Middle Eastern,,NA,run_02,NA,8.5416666675,#d0d9ae,fear,feel scared,yes,1,0,4116,mouse,a mouse,CF104,2.46045,Tech,CF,m,Middle Eastern,,NA,run_02,NA,8.5416666676,#cae5a1,embarrassed,feel embarrassed,kinda,0.5,0,6919,mouse,a mouse,CF104,2.46045,Tech,CF,m,Middle Eastern,laughed,NA,run_02,NA,8.5416666677,#c3e5b5,love,feel love,kinda,0.5,0,5567,mouse,a mouse,CF104,2.46045,Tech,CF,m,Middle Eastern,laughed,NA,run_02,NA,8.5416666678,#a9e7e4,temperature,sense temperatures,yes,1,0,13144,mouse,a mouse,CF104,2.46045,Tech,CF,m,Middle Eastern,"""don't know exact but know hot and cold""",NA,run_02,NA,8.5416666679,#bfd6fa,angry,get angry,yes,1,0,17443,mouse,a mouse,CF104,2.46045,Tech,CF,m,Middle Eastern,,NA,run_02,NA,8.54166666710,#f0d9a2,depth,sense whether something is close by or far away,yes,1,0,6165,mouse,a mouse,CF104,2.46045,Tech,CF,m,Middle Eastern,,NA,run_02,NA,8.54166666711,#b5eaa1,conscious,be aware of things,yes,1,0,5602,mouse,a mouse,CF104,2.46045,Tech,CF,m,Middle Eastern,,NA,run_02,NA,8.54166666712,#f3c5fa,odors,smell things,yes,1,0,4398,mouse,a mouse,CF104,2.46045,Tech,CF,m,Middle Eastern,,NA,run_02,NA,8.54166666713,#d5d0fa,guilt,feel guilty,no,0,0,4810,mouse,a mouse,CF104,2.46045,Tech,CF,m,Middle Eastern,,NA,run_02,NA,8.54166666714,#9be4c0,happy,feel happy,yes,1,0,4750,mouse,a mouse,CF104,2.46045,Tech,CF,m,Middle Eastern,,NA,run_02,NA,8.54166666715,#79e3f9,depressed,feel sad,yes,1,0,3919,mouse,a mouse,CF104,2.460466667,Tech,CF,m,Middle Eastern,,NA,run_02,NA,8.54166666716,#e3df8e,reasoning,figure out how to do things,yes,1,0,4652,mouse,a mouse,CF104,2.460466667,Tech,CF,m,Middle Eastern,,NA,run_02,NA,8.54166666717,#aceab4,remembering,remember things,kinda,0.5,0,4061,mouse,a mouse,CF104,2.460466667,Tech,CF,m,Middle Eastern,,NA,run_02,NA,8.54166666718,#3eeaef,pain,feel pain,yes,1,0,3440,mouse,a mouse,CF104,2.460466667,Tech,CF,m,Middle Eastern,,NA,run_02,NA,8.54166666719,#f0d27e,nauseated,feel sick -- like when you feel like you might throw up,yes,1,0,5849,mouse,a mouse,CF104,2.460466667,Tech,CF,m,Middle Eastern,,NA,run_02,NA,8.54166666720,#97eca5,choices,make choices,yes,1,0,3612,mouse,a mouse,CF104,2.460466667,Tech,CF,m,Middle Eastern,,NA,run_02,NA,8.5416666671,#ead1ec,remembering,remember things,no,0,0,8106,beetle,a beetle,CF105,2.4818,Tech,CF,f,NA,,NA,run_02,NA,NA2,#bce98d,conscious,be aware of things,yes,1,0,6495,beetle,a beetle,CF105,2.4818,Tech,CF,f,NA,,NA,run_02,NA,NA3,#f3c5fa,depressed,feel sad,kinda,0.5,0,5244,beetle,a beetle,CF105,2.4818,Tech,CF,f,NA,,NA,run_02,NA,NA4,#d0d9ae,odors,smell things,yes,1,0,5780,beetle,a beetle,CF105,2.4818,Tech,CF,f,NA,,NA,run_02,NA,NA5,#a9e7e4,pride,feel proud,kinda,0.5,0,5687,beetle,a beetle,CF105,2.4818,Tech,CF,f,NA,,NA,run_02,NA,NA6,#f3d0d9,fear,feel scared,yes,1,0,4763,beetle,a beetle,CF105,2.4818,Tech,CF,f,NA,,NA,run_02,NA,NA7,#84eced,love,feel love,no,0,0,5304,beetle,a beetle,CF105,2.4818,Tech,CF,f,NA,,NA,run_02,NA,NA8,#a9f2ce,disrespected,get hurt feelings,no,0,0,4902,beetle,a beetle,CF105,2.4818,Tech,CF,f,NA,,NA,run_02,NA,NA9,#8cf2c3,pain,feel pain,yes,1,0,5650,beetle,a beetle,CF105,2.4818,Tech,CF,f,NA,,NA,run_02,NA,NA10,#e3d3af,tired,feel tired,yes,1,0,6000,beetle,a beetle,CF105,2.4818,Tech,CF,f,NA,,NA,run_02,NA,NA11,#79e3f9,nauseated,feel sick -- like when you feel like you might throw up,no,0,0,8670,beetle,a beetle,CF105,2.4818,Tech,CF,f,NA,,NA,run_02,NA,NA12,#f0d27e,hungry,get hungry,kinda,1,0,4656,beetle,a beetle,CF105,2.4818,Tech,CF,f,NA,"changed answer from ""no"" to ""yes"" to ""kinda""",NA,run_02,NA,NA1,#f3d0d9,love,feel love,no,0,0,5530,robot,a robot,CF106,2.3373,Tech,CF,m,White,,NA,run_02,NA,8.52,#bae6c8,nauseated,feel sick -- like when you feel like you might throw up,yes,1,0,5381,robot,a robot,CF106,2.3373,Tech,CF,m,White,,NA,run_02,NA,8.53,#cde8e2,reasoning,figure out how to do things,yes,1,0,5305,robot,a robot,CF106,2.337316667,Tech,CF,m,White,,NA,run_02,NA,8.54,#cae5a1,depressed,feel sad,yes,1,0,3804,robot,a robot,CF106,2.337316667,Tech,CF,m,White,,NA,run_02,NA,8.55,#fdcc93,happy,feel happy,yes,1,0,3552,robot,a robot,CF106,2.337316667,Tech,CF,m,White,"parent said ""you sure you're not just saying yes to everything?""",NA,run_02,NA,8.56,#e3dbc8,pain,feel pain,no,0,0,6017,robot,a robot,CF106,2.337316667,Tech,CF,m,White,,NA,run_02,NA,8.57,#a9e7e4,fear,feel scared,kinda,0.5,0,4703,robot,a robot,CF106,2.337316667,Tech,CF,m,White,,NA,run_02,NA,8.58,#dedfa2,pride,feel proud,no,0,0,5248,robot,a robot,CF106,2.337316667,Tech,CF,m,White,,NA,run_02,NA,8.59,#aceab4,depth,sense whether something is close by or far away,yes,1,0,6702,robot,a robot,CF106,2.337316667,Tech,CF,m,White,,NA,run_02,NA,8.510,#97eca5,choices,make choices,yes,1,0,3919,robot,a robot,CF106,2.337316667,Tech,CF,m,White,,NA,run_02,NA,8.511,#d1e48e,conscious,be aware of things,yes,1,0,3770,robot,a robot,CF106,2.337316667,Tech,CF,m,White,,NA,run_02,NA,8.512,#f2e1bc,angry,get angry,yes,1,0,2874,robot,a robot,CF106,2.337316667,Tech,CF,m,White,,NA,run_02,NA,8.513,#a9f2ce,odors,smell things,yes,1,0,5285,robot,a robot,CF106,2.337316667,Tech,CF,m,White,,NA,run_02,NA,8.514,#ead1ec,tired,feel tired,yes,1,0,3768,robot,a robot,CF106,2.337316667,Tech,CF,m,White,,NA,run_02,NA,8.515,#d5d0fa,hungry,get hungry,kinda,0.5,0,3969,robot,a robot,CF106,2.337316667,Tech,CF,m,White,,NA,run_02,NA,8.516,#9be4c0,remembering,remember things,yes,1,0,3993,robot,a robot,CF106,2.337316667,Tech,CF,m,White,,NA,run_02,NA,8.517,#c2e9f5,embarrassed,feel embarrassed,no,0,0,3852,robot,a robot,CF106,2.337316667,Tech,CF,m,White,,NA,run_02,NA,8.518,#64f8f4,guilt,feel guilty,no,0,0,3667,robot,a robot,CF106,2.337316667,Tech,CF,m,White,,NA,run_02,NA,8.519,#b5eaa1,disrespected,get hurt feelings,kinda,0.5,0,4898,robot,a robot,CF106,2.337316667,Tech,CF,m,White,,NA,run_02,NA,8.520,#fde096,temperature,sense temperatures,yes,1,0,4410,robot,a robot,CF106,2.337316667,Tech,CF,m,White,,NA,run_02,NA,8.51,#94ebda,tired,feel tired,yes,1,0,6628,computer,a computer,CF107,3.649233333,Tech,CF,f,White,NA,NA,run_02,NA,9.3055555562,#c3e5b5,depressed,feel sad,no,0,0,5240,computer,a computer,CF107,3.649233333,Tech,CF,f,White,NA,NA,run_02,NA,9.3055555563,#a9e7e4,odors,smell things,no,0,0,3660,computer,a computer,CF107,3.64925,Tech,CF,f,White,NA,NA,run_02,NA,9.3055555564,#f3c5fa,choices,make choices,yes,1,0,8107,computer,a computer,CF107,3.64925,Tech,CF,f,White,NA,NA,run_02,NA,9.3055555565,#64f8f4,pain,feel pain,no,0,0,7216,computer,a computer,CF107,3.64925,Tech,CF,f,White,NA,NA,run_02,NA,9.3055555566,#f2e1bc,depth,sense whether something is close by or far away,kinda,0.5,0,10095,computer,a computer,CF107,3.64925,Tech,CF,f,White,NA,NA,run_02,NA,9.3055555567,#cae5a1,love,feel love,no,0,0,4517,computer,a computer,CF107,3.64925,Tech,CF,f,White,NA,NA,run_02,NA,9.3055555568,#cde8e2,nauseated,feel sick -- like when you feel like you might throw up,no,0,0,6794,computer,a computer,CF107,3.64925,Tech,CF,f,White,NA,NA,run_02,NA,9.3055555569,#f0d9a2,guilt,feel guilty,no,0,0,4117,computer,a computer,CF107,3.64925,Tech,CF,f,White,NA,NA,run_02,NA,9.30555555610,#f3d0d9,fear,feel scared,no,0,0,4623,computer,a computer,CF107,3.64925,Tech,CF,f,White,NA,NA,run_02,NA,9.30555555611,#e3df8e,pride,feel proud,no,0,0,6126,computer,a computer,CF107,3.64925,Tech,CF,f,White,NA,NA,run_02,NA,9.30555555612,#97eca5,conscious,be aware of things,kinda,0.5,505,13689,computer,a computer,CF107,3.64925,Tech,CF,f,White,NA,NA,run_02,NA,9.30555555613,#bfd6fa,embarrassed,feel embarrassed,kinda,0.5,0,4880,computer,a computer,CF107,3.64925,Tech,CF,f,White,NA,NA,run_02,NA,9.30555555614,#b4dbe7,remembering,remember things,yes,1,0,3686,computer,a computer,CF107,3.64925,Tech,CF,f,White,NA,NA,run_02,NA,9.30555555615,#e3dbc8,temperature,sense temperatures,kinda,0.5,0,11918,computer,a computer,CF107,3.64925,Tech,CF,f,White,NA,NA,run_02,NA,9.30555555616,#f0d27e,happy,feel happy,no,0,0,4446,computer,a computer,CF107,3.64925,Tech,CF,f,White,NA,NA,run_02,NA,9.30555555617,#d0d9ae,disrespected,get hurt feelings,no,0,0,5092,computer,a computer,CF107,3.64925,Tech,CF,f,White,NA,NA,run_02,NA,9.30555555618,#bce98d,angry,get angry,no,0,0,3690,computer,a computer,CF107,3.64925,Tech,CF,f,White,NA,NA,run_02,NA,9.30555555619,#5ef2da,hungry,get hungry,kinda,0.5,0,4130,computer,a computer,CF107,3.64925,Tech,CF,f,White,NA,NA,run_02,NA,9.30555555620,#d5d0fa,reasoning,figure out how to do things,yes,1,0,5864,computer,a computer,CF107,3.64925,Tech,CF,f,White,NA,NA,run_02,NA,9.30555555613,#5ef2da,reasoning,figure out how to do things,kinda,0.5,0,7768,beetle,a beetle,CF105,2.4818,Tech,CF,f,NA,,NA,run_02,NA,NA14,#d0e0c8,angry,get angry,yes,1,0,4307,beetle,a beetle,CF105,2.4818,Tech,CF,f,NA,,NA,run_02,NA,NA15,#d2dcee,temperature,sense temperatures,yes,1,0,7562,beetle,a beetle,CF105,2.4818,Tech,CF,f,NA,,NA,run_02,NA,NA16,#aceab4,embarrassed,feel embarrassed,no,0,0,4436,beetle,a beetle,CF105,2.4818,Tech,CF,f,NA,,NA,run_02,NA,NA17,#97eca5,depth,sense whether something is close by or far away,yes,1,0,5691,beetle,a beetle,CF105,2.4818,Tech,CF,f,NA,,NA,run_02,NA,NA18,#fddbd0,happy,feel happy,kinda,0.5,0,5109,beetle,a beetle,CF105,2.4818,Tech,CF,f,NA,"changed answer from ""no"" to ""kinda""",NA,run_02,NA,NA19,#9be4c0,choices,make choices,no,0,0,4631,beetle,a beetle,CF105,2.4818,Tech,CF,f,NA,,NA,run_02,NA,NA20,#dedfa2,guilt,feel guilty,no,0,0,4108,beetle,a beetle,CF105,2.4818,Tech,CF,f,NA,,NA,run_02,NA,NA1,#d5d0fa,love,feel love,kinda,0.5,0,44416,elephant,a elephant,CF108,3.460816667,Tech,CF,m,East Asian,"""not sure""",NA,run_02,NA,NA2,#dee7bc,tired,feel tired,yes,1,0,8647,elephant,a elephant,CF108,3.460816667,Tech,CF,m,East Asian,,NA,run_02,NA,NA3,#3eeaef,temperature,sense temperatures,kinda,0.5,0,11929,elephant,a elephant,CF108,3.460816667,Tech,CF,m,East Asian,"""not sure""",NA,run_02,NA,NA4,#d1e48e,hungry,get hungry,yes,1,0,5489,elephant,a elephant,CF108,3.460816667,Tech,CF,m,East Asian,,NA,run_02,NA,NA5,#b5eaa1,embarrassed,feel embarrassed,kinda,0.5,0,13943,elephant,a elephant,CF108,3.460816667,Tech,CF,m,East Asian,"""not sure""",NA,run_02,NA,NA6,#f3c5fa,depressed,feel sad,no,0,0,6335,elephant,a elephant,CF108,3.460816667,Tech,CF,m,East Asian,,NA,run_02,NA,NA7,#bce98d,happy,feel happy,kinda,0.5,0,6615,elephant,a elephant,CF108,3.460816667,Tech,CF,m,East Asian,,NA,run_02,NA,NA8,#f3d0d9,pride,feel proud,kinda,0.5,0,5890,elephant,a elephant,CF108,3.460816667,Tech,CF,m,East Asian,,NA,run_02,NA,NA9,#e3dbc8,conscious,be aware of things,yes,1,0,7640,elephant,a elephant,CF108,3.460816667,Tech,CF,m,East Asian,,NA,run_02,NA,NA10,#fde096,pain,feel pain,kinda,0.5,0,8009,elephant,a elephant,CF108,3.460816667,Tech,CF,m,East Asian,,NA,run_02,NA,NA11,#94ebda,disrespected,get hurt feelings,kinda,0.5,0,6999,elephant,a elephant,CF108,3.460816667,Tech,CF,m,East Asian,,NA,run_02,NA,NA12,#b4dbe7,odors,smell things,kinda,0.5,0,7535,elephant,a elephant,CF108,3.460816667,Tech,CF,m,East Asian,,NA,run_02,NA,NA1,#d1e48e,tired,feel tired,yes,1,0,5139,beetle,a beetle,CF109,2.18605,Tech,CF,m,White,NA,NA,run_02,NA,9.5638888892,#b5eaa1,pain,feel pain,yes,1,0,3877,beetle,a beetle,CF109,2.18605,Tech,CF,m,White,NA,NA,run_02,NA,9.5638888893,#a9f2ce,temperature,sense temperatures,kinda,0.5,0,3583,beetle,a beetle,CF109,2.18605,Tech,CF,m,White,NA,NA,run_02,NA,9.5638888894,#dedfa2,odors,smell things,yes,1,0,4006,beetle,a beetle,CF109,2.18605,Tech,CF,m,White,NA,NA,run_02,NA,9.5638888895,#c2e9f5,nauseated,feel sick -- like when you feel like you might throw up,kinda,0.5,0,6196,beetle,a beetle,CF109,2.18605,Tech,CF,m,White,NA,NA,run_02,NA,9.5638888896,#94ebda,depressed,feel sad,no,0,0,5844,beetle,a beetle,CF109,2.18605,Tech,CF,m,White,NA,NA,run_02,NA,9.5638888897,#e3df8e,choices,make choices,yes,1,0,2972,beetle,a beetle,CF109,2.18605,Tech,CF,m,White,NA,NA,run_02,NA,9.5638888898,#5ef2da,hungry,get hungry,yes,1,0,2911,beetle,a beetle,CF109,2.18605,Tech,CF,m,White,NA,NA,run_02,NA,9.5638888899,#f0d27e,happy,feel happy,kinda,0.5,0,3292,beetle,a beetle,CF109,2.18605,Tech,CF,m,White,NA,NA,run_02,NA,9.56388888910,#f3d0d9,angry,get angry,kinda,0.5,0,2723,beetle,a beetle,CF109,2.18605,Tech,CF,m,White,NA,NA,run_02,NA,9.56388888911,#c3e5b5,pride,feel proud,no,0,0,8109,beetle,a beetle,CF109,2.18605,Tech,CF,m,White,NA,NA,run_02,NA,9.56388888912,#bae6c8,fear,feel scared,yes,1,0,3238,beetle,a beetle,CF109,2.18605,Tech,CF,m,White,NA,NA,run_02,NA,9.56388888913,#84eced,reasoning,figure out how to do things,kinda,0.5,0,4160,beetle,a beetle,CF109,2.18605,Tech,CF,m,White,NA,NA,run_02,NA,9.56388888914,#97eca5,disrespected,get hurt feelings,kinda,0.5,0,5218,beetle,a beetle,CF109,2.18605,Tech,CF,m,White,NA,NA,run_02,NA,9.56388888915,#8cf2c3,conscious,be aware of things,yes,1,0,4855,beetle,a beetle,CF109,2.18605,Tech,CF,m,White,NA,NA,run_02,NA,9.56388888916,#64f8f4,remembering,remember things,yes,1,0,2756,beetle,a beetle,CF109,2.18605,Tech,CF,m,White,NA,NA,run_02,NA,9.56388888917,#bfd6fa,depth,sense whether something is close by or far away,yes,1,0,6252,beetle,a beetle,CF109,2.18605,Tech,CF,m,White,NA,NA,run_02,NA,9.56388888918,#e3dbc8,guilt,feel guilty,no,0,0,3754,beetle,a beetle,CF109,2.18605,Tech,CF,m,White,NA,NA,run_02,NA,9.56388888919,#d5d0fa,love,feel love,yes,1,0,2664,beetle,a beetle,CF109,2.18605,Tech,CF,m,White,NA,NA,run_02,NA,9.56388888920,#79e3f9,embarrassed,feel embarrassed,no,0,0,3270,beetle,a beetle,CF109,2.18605,Tech,CF,m,White,NA,NA,run_02,NA,9.5638888891,#e3d3af,odors,smell things,no,0,0,8049,computer,a computer,CF110,4.559416667,Tech,CF,m,"Middle Eastern, White",,NA,run_02,NA,7.4805555562,#aceab4,guilt,feel guilty,no,0,1095,17833,computer,a computer,CF110,4.559416667,Tech,CF,m,"Middle Eastern, White","""I don<d5>t know""",NA,run_02,NA,7.4805555563,#f3c5fa,choices,make choices,kinda,0.5,0,16844,computer,a computer,CF110,4.559416667,Tech,CF,m,"Middle Eastern, White","""I think so""",NA,run_02,NA,7.4805555564,#a9e7e4,fear,feel scared,no,0,0,17376,computer,a computer,CF110,4.559416667,Tech,CF,m,"Middle Eastern, White",,NA,run_02,NA,7.4805555565,#d2dcee,depressed,feel sad,no,0,0,5739,computer,a computer,CF110,4.559416667,Tech,CF,m,"Middle Eastern, White",,NA,run_02,NA,7.4805555566,#b4dbe7,depth,sense whether something is close by or far away,kinda,0.5,0,13063,computer,a computer,CF110,4.559433333,Tech,CF,m,"Middle Eastern, White","""some can""",NA,run_02,NA,7.4805555567,#bfd6fa,remembering,remember things,yes,1,0,9388,computer,a computer,CF110,4.559433333,Tech,CF,m,"Middle Eastern, White",,NA,run_02,NA,7.4805555568,#f2e1bc,pain,feel pain,kinda,0.5,0,9545,computer,a computer,CF110,4.559433333,Tech,CF,m,"Middle Eastern, White","""if you throw it on the ground""",NA,run_02,NA,7.4805555569,#dee7bc,love,feel love,no,0,0,11177,computer,a computer,CF110,4.559433333,Tech,CF,m,"Middle Eastern, White",,NA,run_02,NA,7.48055555610,#fde096,happy,feel happy,no,0,0,9238,computer,a computer,CF110,4.559433333,Tech,CF,m,"Middle Eastern, White",,NA,run_02,NA,7.48055555611,#94ebda,nauseated,feel sick -- like when you feel like you might throw up,no,0,194,21364,computer,a computer,CF110,4.559433333,Tech,CF,m,"Middle Eastern, White",,NA,run_02,NA,7.48055555612,#f0d9a2,embarrassed,feel embarrassed,no,0,0,11418,computer,a computer,CF110,4.559433333,Tech,CF,m,"Middle Eastern, White",,NA,run_02,NA,7.48055555613,#cde8e2,temperature,sense temperatures,no,0,0,8960,computer,a computer,CF110,4.559433333,Tech,CF,m,"Middle Eastern, White",,NA,run_02,NA,7.48055555614,#e3df8e,angry,get angry,no,0,0,6332,computer,a computer,CF110,4.559433333,Tech,CF,m,"Middle Eastern, White","""they're [the answers] are mostly no's""",NA,run_02,NA,7.48055555615,#fdcc93,hungry,get hungry,no,0,0,5777,computer,a computer,CF110,4.559433333,Tech,CF,m,"Middle Eastern, White",,NA,run_02,NA,7.48055555616,#f0d27e,disrespected,get hurt feelings,no,0,0,9198,computer,a computer,CF110,4.559433333,Tech,CF,m,"Middle Eastern, White",,NA,run_02,NA,7.48055555617,#c3e5b5,pride,feel proud,no,0,0,8684,computer,a computer,CF110,4.559433333,Tech,CF,m,"Middle Eastern, White",,NA,run_02,NA,7.48055555618,#bce98d,conscious,be aware of things,kinda,0.5,535,27308,computer,a computer,CF110,4.559433333,Tech,CF,m,"Middle Eastern, White","""sometimes""",NA,run_02,NA,7.48055555619,#3eeaef,tired,feel tired,yes,1,0,8650,computer,a computer,CF110,4.559433333,Tech,CF,m,"Middle Eastern, White","""if it's out of battery""",NA,run_02,NA,7.48055555620,#a9f2ce,reasoning,figure out how to do things,yes,1,0,13193,computer,a computer,CF110,4.559433333,Tech,CF,m,"Middle Eastern, White","""beause you can type with it""",NA,run_02,NA,7.4805555561,#d5d0fa,hungry,get hungry,kinda,0.5,0,7266,bird,a bird,CF111,2.652333333,Tech,CF,m,NA,,NA,run_02,NA,8.1777777782,#f0d27e,fear,feel scared,yes,1,0,5475,bird,a bird,CF111,2.652333333,Tech,CF,m,NA,,NA,run_02,NA,8.1777777783,#c3e5b5,pain,feel pain,yes,1,0,4673,bird,a bird,CF111,2.652333333,Tech,CF,m,NA,,NA,run_02,NA,8.1777777784,#bce98d,pride,feel proud,kinda,0.5,0,7554,bird,a bird,CF111,2.652333333,Tech,CF,m,NA,,NA,run_02,NA,8.1777777785,#84eced,tired,feel tired,yes,1,0,7293,bird,a bird,CF111,2.652333333,Tech,CF,m,NA,,NA,run_02,NA,8.1777777786,#97eca5,embarrassed,feel embarrassed,no,0,0,5071,bird,a bird,CF111,2.652333333,Tech,CF,m,NA,,NA,run_02,NA,8.1777777787,#d0d9ae,love,feel love,yes,1,0,4813,bird,a bird,CF111,2.652333333,Tech,CF,m,NA,,NA,run_02,NA,8.1777777788,#a9e7e4,remembering,remember things,kinda,0.5,0,5877,bird,a bird,CF111,2.652333333,Tech,CF,m,NA,changed answer from no to kinda,NA,run_02,NA,8.1777777789,#64f8f4,depressed,feel sad,yes,1,0,7858,bird,a bird,CF111,2.652333333,Tech,CF,m,NA,,NA,run_02,NA,8.17777777810,#d2dcee,happy,feel happy,yes,1,0,5242,bird,a bird,CF111,2.652333333,Tech,CF,m,NA,,NA,run_02,NA,8.17777777811,#d1e48e,angry,get angry,kinda,0.5,0,6220,bird,a bird,CF111,2.652333333,Tech,CF,m,NA,,NA,run_02,NA,8.17777777812,#ead1ec,nauseated,feel sick -- like when you feel like you might throw up,no,0,0,6256,bird,a bird,CF111,2.652333333,Tech,CF,m,NA,,NA,run_02,NA,8.17777777813,#fddbd0,guilt,feel guilty,kinda,0.5,0,5181,bird,a bird,CF111,2.652333333,Tech,CF,m,NA,,NA,run_02,NA,8.17777777814,#f0d9a2,odors,smell things,yes,1,0,4766,bird,a bird,CF111,2.652333333,Tech,CF,m,NA,,NA,run_02,NA,8.17777777815,#dee7bc,depth,sense whether something is close by or far away,kinda,0.5,0,7257,bird,a bird,CF111,2.652333333,Tech,CF,m,NA,,NA,run_02,NA,8.17777777816,#fde096,choices,make choices,yes,1,0,7962,bird,a bird,CF111,2.652333333,Tech,CF,m,NA,,NA,run_02,NA,8.17777777817,#d0e0c8,conscious,be aware of things,kinda,0.5,0,7709,bird,a bird,CF111,2.652333333,Tech,CF,m,NA,,NA,run_02,NA,8.17777777818,#e3d3af,temperature,sense temperatures,no,0,0,6895,bird,a bird,CF111,2.652333333,Tech,CF,m,NA,,NA,run_02,NA,8.17777777819,#cae5a1,disrespected,get hurt feelings,kinda,0.5,0,7419,bird,a bird,CF111,2.652333333,Tech,CF,m,NA,,NA,run_02,NA,8.17777777820,#f3d0d9,reasoning,figure out how to do things,kinda,0.5,0,6756,bird,a bird,CF111,2.652333333,Tech,CF,m,NA,,NA,run_02,NA,8.1777777781,#79e3f9,disrespected,get hurt feelings,kinda,0.5,0,8480,elephant,a elephant,CF112,3.20565,Tech,CF,m,Other,,NA,run_02,NA,7.752,#fdcc93,conscious,be aware of things,no,0,0,14925,elephant,a elephant,CF112,3.20565,Tech,CF,m,Other,,NA,run_02,NA,7.753,#e3df8e,temperature,sense temperatures,yes,1,0,6510,elephant,a elephant,CF112,3.20565,Tech,CF,m,Other,,NA,run_02,NA,7.754,#64f8f4,guilt,feel guilty,kinda,0.5,0,6297,elephant,a elephant,CF112,3.20565,Tech,CF,m,Other,,NA,run_02,NA,7.755,#f3c5fa,happy,feel happy,yes,1,0,4643,elephant,a elephant,CF112,3.20565,Tech,CF,m,Other,,NA,run_02,NA,7.756,#cae5a1,depressed,feel sad,yes,1,0,5149,elephant,a elephant,CF112,3.20565,Tech,CF,m,Other,,NA,run_02,NA,7.757,#d1e48e,love,feel love,no,0,0,8775,elephant,a elephant,CF112,3.20565,Tech,CF,m,Other,,NA,run_02,NA,7.758,#ead1ec,choices,make choices,no,0,0,6173,elephant,a elephant,CF112,3.20565,Tech,CF,m,Other,,NA,run_02,NA,7.759,#84eced,embarrassed,feel embarrassed,kinda,0.5,0,7161,elephant,a elephant,CF112,3.20565,Tech,CF,m,Other,"""I don't know""",NA,run_02,NA,7.7510,#c2e9f5,odors,smell things,yes,1,0,5683,elephant,a elephant,CF112,3.20565,Tech,CF,m,Other,"""that's their nose right there""",NA,run_02,NA,7.7511,#f0d27e,nauseated,feel sick -- like when you feel like you might throw up,yes,1,0,15719,elephant,a elephant,CF112,3.20565,Tech,CF,m,Other,,NA,run_02,NA,7.7512,#bfd6fa,tired,feel tired,yes,1,0,8084,elephant,a elephant,CF112,3.20565,Tech,CF,m,Other,"""all of these are yes""",NA,run_02,NA,7.7513,#a9f2ce,pride,feel proud,kinda,0.5,0,8686,elephant,a elephant,CF112,3.20565,Tech,CF,m,Other,,NA,run_02,NA,7.7514,#e3dbc8,angry,get angry,kinda,0.5,0,6895,elephant,a elephant,CF112,3.20565,Tech,CF,m,Other,,NA,run_02,NA,7.7515,#f0d9a2,reasoning,figure out how to do things,no,0,0,5690,elephant,a elephant,CF112,3.20565,Tech,CF,m,Other,,NA,run_02,NA,7.7516,#e3d3af,pain,feel pain,yes,1,0,5015,elephant,a elephant,CF112,3.20565,Tech,CF,m,Other,,NA,run_02,NA,7.7517,#9be4c0,depth,sense whether something is close by or far away,kinda,0.5,0,9786,elephant,a elephant,CF112,3.20565,Tech,CF,m,Other,changed answer from yes to kinda,NA,run_02,NA,7.7518,#f3d0d9,fear,feel scared,yes,1,0,6562,elephant,a elephant,CF112,3.20565,Tech,CF,m,Other,,NA,run_02,NA,7.7519,#fde096,hungry,get hungry,yes,1,0,6414,elephant,a elephant,CF112,3.20565,Tech,CF,m,Other,"""that's an easy one""",NA,run_02,NA,7.7520,#bce98d,remembering,remember things,kinda,0.5,0,7112,elephant,a elephant,CF112,3.20565,Tech,CF,m,Other,,NA,run_02,NA,7.751,#94ebda,angry,get angry,yes,1,0,5845,beetle,a beetle,CF113,4.385383333,Tech,CF,f,White,,NA,run_02,NA,8.6222222222,#fddbd0,happy,feel happy,yes,1,0,6563,beetle,a beetle,CF113,4.385383333,Tech,CF,f,White,"""probably""",NA,run_02,NA,8.6222222223,#fde096,reasoning,figure out how to do things,kinda,0.5,0,7025,beetle,a beetle,CF113,4.385383333,Tech,CF,f,White,,NA,run_02,NA,8.6222222224,#c2e9f5,hungry,get hungry,yes,1,0,5470,beetle,a beetle,CF113,4.385383333,Tech,CF,f,White,,NA,run_02,NA,8.6222222225,#bae6c8,disrespected,get hurt feelings,yes,1,0,8441,beetle,a beetle,CF113,4.385383333,Tech,CF,f,White,"""probably""",NA,run_02,NA,8.6222222226,#e3dbc8,nauseated,feel sick -- like when you feel like you might throw up,no,0,0,11485,beetle,a beetle,CF113,4.385383333,Tech,CF,f,White,"""probably not""",NA,run_02,NA,8.6222222227,#aceab4,guilt,feel guilty,yes,1,0,7233,beetle,a beetle,CF113,4.385383333,Tech,CF,f,White,"""definitely""",NA,run_02,NA,8.6222222228,#d2dcee,depressed,feel sad,yes,1,0,6236,beetle,a beetle,CF113,4.385383333,Tech,CF,f,White,,NA,run_02,NA,8.6222222229,#5ef2da,pride,feel proud,yes,1,0,6620,beetle,a beetle,CF113,4.385383333,Tech,CF,f,White,,NA,run_02,NA,8.62222222210,#f2cdb9,fear,feel scared,yes,1,0,8698,beetle,a beetle,CF113,4.385383333,Tech,CF,f,White,"""if something big comes up to it""",NA,run_02,NA,8.62222222211,#e3df8e,tired,feel tired,yes,1,0,13299,beetle,a beetle,CF113,4.385383333,Tech,CF,f,White,,NA,run_02,NA,8.62222222212,#cae5a1,odors,smell things,kinda,0.5,0,19771,beetle,a beetle,CF113,4.385383333,Tech,CF,f,White,"""I think so""",NA,run_02,NA,8.62222222213,#d0e0c8,remembering,remember things,kinda,0.5,0,7031,beetle,a beetle,CF113,4.385383333,Tech,CF,f,White,,NA,run_02,NA,8.62222222214,#cde8e2,embarrassed,feel embarrassed,yes,1,0,6196,beetle,a beetle,CF113,4.385383333,Tech,CF,f,White,,NA,run_02,NA,8.62222222215,#a9e7e4,conscious,be aware of things,yes,1,0,10467,beetle,a beetle,CF113,4.385383333,Tech,CF,f,White,,NA,run_02,NA,8.62222222216,#e3d3af,choices,make choices,yes,1,0,11761,beetle,a beetle,CF113,4.385383333,Tech,CF,f,White,"""it could make a choice to stay on a leaf or go to the ground""",NA,run_02,NA,8.62222222217,#f3d0d9,temperature,sense temperatures,no,0,0,9343,beetle,a beetle,CF113,4.385383333,Tech,CF,f,White,,NA,run_02,NA,8.62222222218,#ead1ec,love,feel love,kinda,0.5,0,6536,beetle,a beetle,CF113,4.385383333,Tech,CF,f,White,,NA,run_02,NA,8.62222222219,#84eced,depth,sense whether something is close by or far away,yes,1,0,9094,beetle,a beetle,CF113,4.385383333,Tech,CF,f,White,"""probably""",NA,run_02,NA,8.62222222220,#d1e48e,pain,feel pain,yes,1,0,15206,beetle,a beetle,CF113,4.385383333,Tech,CF,f,White,"""if its wing fell off, probably""",NA,run_02,NA,8.6222222221,#94ebda,remembering,remember things,yes,1,0,4316,computer,a computer,CF114,1.668866667,Tech,CF,f,NA,,NA,run_02,NA,8.5805555562,#d2dcee,love,feel love,no,0,0,3978,computer,a computer,CF114,1.668866667,Tech,CF,f,NA,,NA,run_02,NA,8.5805555563,#8cf2c3,depth,sense whether something is close by or far away,kinda,0.5,0,6286,computer,a computer,CF114,1.668866667,Tech,CF,f,NA,,NA,run_02,NA,8.5805555564,#84eced,pride,feel proud,no,0,0,5210,computer,a computer,CF114,1.668866667,Tech,CF,f,NA,laughed,NA,run_02,NA,8.5805555565,#ead1ec,nauseated,feel sick -- like when you feel like you might throw up,kinda,0.5,0,6684,computer,a computer,CF114,1.668866667,Tech,CF,f,NA,,NA,run_02,NA,8.5805555566,#b5eaa1,odors,smell things,yes,1,0,2359,computer,a computer,CF114,1.668866667,Tech,CF,f,NA,,NA,run_02,NA,8.5805555567,#dedfa2,angry,get angry,no,0,0,3216,computer,a computer,CF114,1.668866667,Tech,CF,f,NA,,NA,run_02,NA,8.5805555568,#f0d9a2,depressed,feel sad,no,0,0,2884,computer,a computer,CF114,1.668866667,Tech,CF,f,NA,,NA,run_02,NA,8.5805555569,#e3dbc8,fear,feel scared,no,0,0,2141,computer,a computer,CF114,1.668866667,Tech,CF,f,NA,,NA,run_02,NA,8.58055555610,#fddbd0,choices,make choices,yes,1,0,2661,computer,a computer,CF114,1.668866667,Tech,CF,f,NA,,NA,run_02,NA,8.58055555611,#d1e48e,guilt,feel guilty,no,0,0,1883,computer,a computer,CF114,1.668866667,Tech,CF,f,NA,,NA,run_02,NA,8.58055555612,#dee7bc,temperature,sense temperatures,kinda,0.5,0,2453,computer,a computer,CF114,1.668866667,Tech,CF,f,NA,,NA,run_02,NA,8.58055555613,#5ef2da,happy,feel happy,no,0,0,2430,computer,a computer,CF114,1.668866667,Tech,CF,f,NA,,NA,run_02,NA,8.58055555614,#f3d0d9,pain,feel pain,no,0,0,1898,computer,a computer,CF114,1.668866667,Tech,CF,f,NA,,NA,run_02,NA,8.58055555615,#c3e5b5,hungry,get hungry,no,0,0,1379,computer,a computer,CF114,1.668866667,Tech,CF,f,NA,,NA,run_02,NA,8.58055555616,#cae5a1,embarrassed,feel embarrassed,no,0,0,1415,computer,a computer,CF114,1.668866667,Tech,CF,f,NA,,NA,run_02,NA,8.58055555617,#d5d0fa,tired,feel tired,no,0,0,1522,computer,a computer,CF114,1.668866667,Tech,CF,f,NA,,NA,run_02,NA,8.58055555618,#f2e1bc,conscious,be aware of things,kinda,0.5,0,2808,computer,a computer,CF114,1.668866667,Tech,CF,f,NA,,NA,run_02,NA,8.58055555619,#9be4c0,disrespected,get hurt feelings,no,0,0,2738,computer,a computer,CF114,1.668866667,Tech,CF,f,NA,,NA,run_02,NA,8.58055555620,#f0d27e,reasoning,figure out how to do things,yes,1,0,3558,computer,a computer,CF114,1.668866667,Tech,CF,f,NA,,NA,run_02,NA,8.58055555613,#bfd6fa,fear,feel scared,kinda,0.5,0,6526,elephant,a elephant,CF108,3.460816667,Tech,CF,m,East Asian,,NA,run_02,NA,NA14,#a9e7e4,angry,get angry,no,0,0,6841,elephant,a elephant,CF108,3.460816667,Tech,CF,m,East Asian,,NA,run_02,NA,NA15,#c2e9f5,nauseated,feel sick -- like when you feel like you might throw up,kinda,0.5,0,9899,elephant,a elephant,CF108,3.460816667,Tech,CF,m,East Asian,,NA,run_02,NA,NA16,#e3d3af,choices,make choices,no,0,0,5805,elephant,a elephant,CF108,3.460816667,Tech,CF,m,East Asian,,NA,run_02,NA,NA17,#fdcc93,reasoning,figure out how to do things,yes,1,0,10368,elephant,a elephant,CF108,3.460816667,Tech,CF,m,East Asian,,NA,run_02,NA,NA18,#a9f2ce,depth,sense whether something is close by or far away,kinda,0.5,0,10018,elephant,a elephant,CF108,3.460816667,Tech,CF,m,East Asian,,NA,run_02,NA,NA19,#d0e0c8,remembering,remember things,yes,1,0,10018,elephant,a elephant,CF108,3.460816667,Tech,CF,m,East Asian,,NA,run_02,NA,NA20,#f0d27e,guilt,feel guilty,no,0,0,8330,elephant,a elephant,CF108,3.460816667,Tech,CF,m,East Asian,,NA,run_02,NA,NA1,#f3c5fa,embarrassed,feel embarrassed,kinda,0.5,0,9360,computer,a computer,JNS53,2.5654,Tech,JNS,m,Other (Asian American),,"Animatronic robot at museum near testing site, parent only gave birth month",run_02,NA,NA2,#84eced,remembering,remember things,yes,1,0,5005,computer,a computer,JNS53,2.5654,Tech,JNS,m,Other (Asian American),,"Animatronic robot at museum near testing site, parent only gave birth month",run_02,NA,NA3,#dee7bc,depth,sense whether something is close by or far away,kinda,0.5,0,9012,computer,a computer,JNS53,2.5654,Tech,JNS,m,Other (Asian American),,"Animatronic robot at museum near testing site, parent only gave birth month",run_02,NA,NA4,#e3d3af,odors,smell things,no,0,0,4717,computer,a computer,JNS53,2.5654,Tech,JNS,m,Other (Asian American),,"Animatronic robot at museum near testing site, parent only gave birth month",run_02,NA,NA5,#f0d27e,temperature,sense temperatures,no,0,0,6907,computer,a computer,JNS53,2.5654,Tech,JNS,m,Other (Asian American),,"Animatronic robot at museum near testing site, parent only gave birth month",run_02,NA,NA6,#5ef2da,angry,get angry,kinda,0.5,0,5912,computer,a computer,JNS53,2.5654,Tech,JNS,m,Other (Asian American),,"Animatronic robot at museum near testing site, parent only gave birth month",run_02,NA,NA7,#f0d9a2,love,feel love,no,0,0,5500,computer,a computer,JNS53,2.5654,Tech,JNS,m,Other (Asian American),,"Animatronic robot at museum near testing site, parent only gave birth month",run_02,NA,NA8,#bae6c8,pain,feel pain,no,0,0,6035,computer,a computer,JNS53,2.5654,Tech,JNS,m,Other (Asian American),,"Animatronic robot at museum near testing site, parent only gave birth month",run_02,NA,NA9,#e3dbc8,pride,feel proud,no,0,0,8040,computer,a computer,JNS53,2.5654,Tech,JNS,m,Other (Asian American),,"Animatronic robot at museum near testing site, parent only gave birth month",run_02,NA,NA10,#a9f2ce,happy,feel happy,no,0,0,8785,computer,a computer,JNS53,2.5654,Tech,JNS,m,Other (Asian American),laughed,"Animatronic robot at museum near testing site, parent only gave birth month",run_02,NA,NA11,#aceab4,reasoning,figure out how to do things,yes,1,0,5858,computer,a computer,JNS53,2.5654,Tech,JNS,m,Other (Asian American),,"Animatronic robot at museum near testing site, parent only gave birth month",run_02,NA,NA12,#ead1ec,fear,feel scared,kinda,0.5,0,5782,computer,a computer,JNS53,2.5654,Tech,JNS,m,Other (Asian American),,"Animatronic robot at museum near testing site, parent only gave birth month",run_02,NA,NA1,#9be4c0,love,feel love,kinda,0.5,0,12170,beetle,a beetle,CF116,4.684483333,Tech,CF,m,East Asian,,NA,run_02,NA,8.7416666672,#aceab4,angry,get angry,yes,1,0,6837,beetle,a beetle,CF116,4.684483333,Tech,CF,m,East Asian,,NA,run_02,NA,8.7416666673,#cde8e2,choices,make choices,yes,1,0,5686,beetle,a beetle,CF116,4.684483333,Tech,CF,m,East Asian,"""definitely""",NA,run_02,NA,8.7416666674,#79e3f9,happy,feel happy,yes,1,0,7978,beetle,a beetle,CF116,4.684483333,Tech,CF,m,East Asian,,NA,run_02,NA,8.7416666675,#fdcc93,nauseated,feel sick -- like when you feel like you might throw up,yes,1,0,14564,beetle,a beetle,CF116,4.684483333,Tech,CF,m,East Asian,"""can feel sick, but maybe not throw up""",NA,run_02,NA,8.7416666676,#e3d3af,embarrassed,feel embarrassed,kinda,0.5,0,12235,beetle,a beetle,CF116,4.684483333,Tech,CF,m,East Asian,,NA,run_02,NA,8.7416666677,#bae6c8,fear,feel scared,yes,1,0,3814,beetle,a beetle,CF116,4.684483333,Tech,CF,m,East Asian,,NA,run_02,NA,8.7416666678,#f0d9a2,reasoning,figure out how to do things,no,0,0,40708,beetle,a beetle,CF116,4.684483333,Tech,CF,m,East Asian,"asked ""what kind of things"", definition wasn't working so said ""anything""",NA,run_02,NA,8.7416666679,#f2e1bc,tired,feel tired,yes,1,0,9039,beetle,a beetle,CF116,4.684483333,Tech,CF,m,East Asian,,NA,run_02,NA,8.74166666710,#bce98d,disrespected,get hurt feelings,kinda,0.5,0,18936,beetle,a beetle,CF116,4.684483333,Tech,CF,m,East Asian,,NA,run_02,NA,8.74166666711,#94ebda,depth,sense whether something is close by or far away,yes,1,0,8193,beetle,a beetle,CF116,4.684483333,Tech,CF,m,East Asian,,NA,run_02,NA,8.74166666712,#d1e48e,hungry,get hungry,yes,1,0,6819,beetle,a beetle,CF116,4.684483333,Tech,CF,m,East Asian,,NA,run_02,NA,8.74166666713,#97eca5,guilt,feel guilty,kinda,0.5,0,23868,beetle,a beetle,CF116,4.684483333,Tech,CF,m,East Asian,,NA,run_02,NA,8.74166666714,#cae5a1,depressed,feel sad,yes,1,0,6321,beetle,a beetle,CF116,4.6845,Tech,CF,m,East Asian,,NA,run_02,NA,8.74166666715,#b5eaa1,odors,smell things,kinda,0.5,0,21816,beetle,a beetle,CF116,4.6845,Tech,CF,m,East Asian,,NA,run_02,NA,8.74166666716,#64f8f4,conscious,be aware of things,yes,1,0,5902,beetle,a beetle,CF116,4.6845,Tech,CF,m,East Asian,,NA,run_02,NA,8.74166666717,#c2e9f5,temperature,sense temperatures,kinda,0.5,0,7987,beetle,a beetle,CF116,4.6845,Tech,CF,m,East Asian,,NA,run_02,NA,8.74166666718,#84eced,remembering,remember things,yes,1,0,6128,beetle,a beetle,CF116,4.6845,Tech,CF,m,East Asian,,NA,run_02,NA,8.74166666719,#ead1ec,pain,feel pain,yes,1,0,4968,beetle,a beetle,CF116,4.6845,Tech,CF,m,East Asian,,NA,run_02,NA,8.74166666720,#a9f2ce,pride,feel proud,kinda,0.5,0,11194,beetle,a beetle,CF116,4.6845,Tech,CF,m,East Asian,,NA,run_02,NA,8.7416666671,#f3d0d9,guilt,feel guilty,no,0,0,17404,beetle,a beetle,CF117,4.460733333,Tech,CF,m,East Asian,,NA,run_02,NA,8.4555555562,#d0e0c8,angry,get angry,kinda,0.5,0,7619,beetle,a beetle,CF117,4.460733333,Tech,CF,m,East Asian,,NA,run_02,NA,8.4555555563,#d1e48e,reasoning,figure out how to do things,yes,1,1,4386,beetle,a beetle,CF117,4.460733333,Tech,CF,m,East Asian,,NA,run_02,NA,8.4555555564,#f2cdb9,nauseated,feel sick -- like when you feel like you might throw up,kinda,0.5,0,5276,beetle,a beetle,CF117,4.460733333,Tech,CF,m,East Asian,,NA,run_02,NA,8.4555555565,#d0d9ae,fear,feel scared,no,0,3682,7841,beetle,a beetle,CF117,4.460733333,Tech,CF,m,East Asian,,NA,run_02,NA,8.4555555566,#dedfa2,tired,feel tired,kinda,0.5,0,4595,beetle,a beetle,CF117,4.460733333,Tech,CF,m,East Asian,,NA,run_02,NA,8.4555555567,#f0d9a2,remembering,remember things,kinda,0.5,0,4796,beetle,a beetle,CF117,4.460733333,Tech,CF,m,East Asian,,NA,run_02,NA,8.4555555568,#aceab4,hungry,get hungry,yes,1,0,3176,beetle,a beetle,CF117,4.460733333,Tech,CF,m,East Asian,,NA,run_02,NA,8.4555555569,#a9f2ce,conscious,be aware of things,kinda,0.5,0,4950,beetle,a beetle,CF117,4.460733333,Tech,CF,m,East Asian,,NA,run_02,NA,8.45555555610,#97eca5,temperature,sense temperatures,kinda,0.5,0,5407,beetle,a beetle,CF117,4.460733333,Tech,CF,m,East Asian,,NA,run_02,NA,8.45555555611,#b5eaa1,love,feel love,kinda,0.5,0,3927,beetle,a beetle,CF117,4.460733333,Tech,CF,m,East Asian,parent laughed,NA,run_02,NA,8.45555555612,#d2dcee,disrespected,get hurt feelings,kinda,0.5,1080,3850,beetle,a beetle,CF117,4.460733333,Tech,CF,m,East Asian,,NA,run_02,NA,8.45555555613,#b4dbe7,pain,feel pain,yes,1,0,7593,beetle,a beetle,CF117,4.460733333,Tech,CF,m,East Asian,,NA,run_02,NA,8.45555555614,#d5d0fa,choices,make choices,yes,1,0,3665,beetle,a beetle,CF117,4.460733333,Tech,CF,m,East Asian,,NA,run_02,NA,8.45555555615,#f3c5fa,happy,feel happy,yes,1,0,2996,beetle,a beetle,CF117,4.46075,Tech,CF,m,East Asian,,NA,run_02,NA,8.45555555616,#94ebda,embarrassed,feel embarrassed,kinda,0.5,0,3712,beetle,a beetle,CF117,4.46075,Tech,CF,m,East Asian,,NA,run_02,NA,8.45555555617,#a7dcf9,depressed,feel sad,yes,1,0,4040,beetle,a beetle,CF117,4.46075,Tech,CF,m,East Asian,,NA,run_02,NA,8.45555555618,#9be4c0,depth,sense whether something is close by or far away,yes,1,0,5679,beetle,a beetle,CF117,4.46075,Tech,CF,m,East Asian,,NA,run_02,NA,8.45555555619,#bce98d,pride,feel proud,kinda,0.5,0,4378,beetle,a beetle,CF117,4.46075,Tech,CF,m,East Asian,,NA,run_02,NA,8.45555555620,#fdcc93,odors,smell things,no,0,0,8256,beetle,a beetle,CF117,4.46075,Tech,CF,m,East Asian,,NA,run_02,NA,8.4555555561,#bce98d,hungry,get hungry,yes,1,0,5726,elephant,a elephant,CF118,2.936933333,Tech,CF,f,NA,NA,NA,run_02,NA,7.1611111112,#b5eaa1,reasoning,figure out how to do things,yes,1,0,6206,elephant,a elephant,CF118,2.936933333,Tech,CF,f,NA,NA,NA,run_02,NA,7.1611111113,#d0d9ae,pride,feel proud,yes,1,0,5086,elephant,a elephant,CF118,2.936933333,Tech,CF,f,NA,NA,NA,run_02,NA,7.1611111114,#f3c5fa,pain,feel pain,yes,1,0,6036,elephant,a elephant,CF118,2.936933333,Tech,CF,f,NA,NA,NA,run_02,NA,7.1611111115,#cde8e2,nauseated,feel sick -- like when you feel like you might throw up,no,0,0,6791,elephant,a elephant,CF118,2.936933333,Tech,CF,f,NA,NA,NA,run_02,NA,7.1611111116,#fdcc93,temperature,sense temperatures,no,0,0,10485,elephant,a elephant,CF118,2.936933333,Tech,CF,f,NA,NA,NA,run_02,NA,7.1611111117,#fddbd0,choices,make choices,no,0,0,5779,elephant,a elephant,CF118,2.936933333,Tech,CF,f,NA,NA,NA,run_02,NA,7.1611111118,#64f8f4,disrespected,get hurt feelings,yes,1,0,6478,elephant,a elephant,CF118,2.936933333,Tech,CF,f,NA,NA,NA,run_02,NA,7.1611111119,#f3d0d9,tired,feel tired,yes,1,0,5843,elephant,a elephant,CF118,2.936933333,Tech,CF,f,NA,NA,NA,run_02,NA,7.16111111110,#c2e9f5,remembering,remember things,yes,1,0,5335,elephant,a elephant,CF118,2.936933333,Tech,CF,f,NA,NA,NA,run_02,NA,7.16111111111,#79e3f9,depth,sense whether something is close by or far away,no,0,0,7332,elephant,a elephant,CF118,2.936933333,Tech,CF,f,NA,NA,NA,run_02,NA,7.16111111112,#a7dcf9,odors,smell things,yes,1,0,6138,elephant,a elephant,CF118,2.936933333,Tech,CF,f,NA,NA,NA,run_02,NA,7.16111111113,#f0d9a2,love,feel love,yes,1,0,5245,elephant,a elephant,CF118,2.936933333,Tech,CF,f,NA,NA,NA,run_02,NA,7.16111111114,#a9e7e4,conscious,be aware of things,kinda,0.5,0,8120,elephant,a elephant,CF118,2.936933333,Tech,CF,f,NA,NA,NA,run_02,NA,7.16111111115,#b4dbe7,happy,feel happy,yes,1,0,5419,elephant,a elephant,CF118,2.936933333,Tech,CF,f,NA,NA,NA,run_02,NA,7.16111111116,#d5d0fa,depressed,feel sad,yes,1,0,5247,elephant,a elephant,CF118,2.936933333,Tech,CF,f,NA,NA,NA,run_02,NA,7.16111111117,#3eeaef,angry,get angry,yes,1,0,4959,elephant,a elephant,CF118,2.936933333,Tech,CF,f,NA,NA,NA,run_02,NA,7.16111111118,#f2e1bc,guilt,feel guilty,yes,1,0,5447,elephant,a elephant,CF118,2.936933333,Tech,CF,f,NA,NA,NA,run_02,NA,7.16111111119,#e3df8e,embarrassed,feel embarrassed,yes,1,0,5291,elephant,a elephant,CF118,2.936933333,Tech,CF,f,NA,NA,NA,run_02,NA,7.16111111120,#d2dcee,fear,feel scared,yes,1,0,5252,elephant,a elephant,CF118,2.936933333,Tech,CF,f,NA,NA,NA,run_02,NA,7.1611111111,#64f8f4,disrespected,get hurt feelings,yes,1,0,16227,elephant,a elephant,CF119,5.3888,Tech,CF,m,White,,NA,run_02,NA,8.9694444442,#c2e9f5,happy,feel happy,yes,1,0,19197,elephant,a elephant,CF119,5.3888,Tech,CF,m,White,"""sometimes""",NA,run_02,NA,8.9694444443,#a9f2ce,embarrassed,feel embarrassed,yes,1,0,6269,elephant,a elephant,CF119,5.3888,Tech,CF,m,White,,NA,run_02,NA,8.9694444444,#8cf2c3,temperature,sense temperatures,kinda,0.5,0,6524,elephant,a elephant,CF119,5.3888,Tech,CF,m,White,,NA,run_02,NA,8.9694444445,#d0d9ae,choices,make choices,yes,1,0,5693,elephant,a elephant,CF119,5.3888,Tech,CF,m,White,,NA,run_02,NA,8.9694444446,#f0d9a2,conscious,be aware of things,kinda,0.5,0,9187,elephant,a elephant,CF119,5.3888,Tech,CF,m,White,,NA,run_02,NA,8.9694444447,#f0d27e,depth,sense whether something is close by or far away,yes,1,0,7331,elephant,a elephant,CF119,5.3888,Tech,CF,m,White,,NA,run_02,NA,8.9694444448,#b4dbe7,hungry,get hungry,yes,1,0,8604,elephant,a elephant,CF119,5.3888,Tech,CF,m,White,,NA,run_02,NA,8.9694444449,#f2cdb9,remembering,remember things,kinda,0.5,0,5067,elephant,a elephant,CF119,5.3888,Tech,CF,m,White,,NA,run_02,NA,8.96944444410,#bae6c8,odors,smell things,kinda,0.5,0,7970,elephant,a elephant,CF119,5.3888,Tech,CF,m,White,,NA,run_02,NA,8.96944444411,#d0e0c8,depressed,feel sad,yes,1,0,4822,elephant,a elephant,CF119,5.3888,Tech,CF,m,White,,NA,run_02,NA,8.96944444412,#e3dbc8,pride,feel proud,kinda,0.5,0,7878,elephant,a elephant,CF119,5.3888,Tech,CF,m,White,,NA,run_02,NA,8.96944444413,#dee7bc,love,feel love,kinda,0.5,0,5985,elephant,a elephant,CF119,5.3888,Tech,CF,m,White,,NA,run_02,NA,8.96944444414,#94ebda,fear,feel scared,yes,1,0,9605,elephant,a elephant,CF119,5.3888,Tech,CF,m,White,,NA,run_02,NA,8.96944444415,#cae5a1,pain,feel pain,yes,1,0,6020,elephant,a elephant,CF119,5.3888,Tech,CF,m,White,,NA,run_02,NA,8.96944444416,#bce98d,nauseated,feel sick -- like when you feel like you might throw up,kinda,0.5,0,7645,elephant,a elephant,CF119,5.3888,Tech,CF,m,White,,NA,run_02,NA,8.96944444417,#bfd6fa,angry,get angry,yes,1,0,6557,elephant,a elephant,CF119,5.3888,Tech,CF,m,White,,NA,run_02,NA,8.96944444418,#fddbd0,guilt,feel guilty,no,0,0,6121,elephant,a elephant,CF119,5.3888,Tech,CF,m,White,,NA,run_02,NA,8.96944444419,#a7dcf9,reasoning,figure out how to do things,kinda,0.5,0,6377,elephant,a elephant,CF119,5.3888,Tech,CF,m,White,,NA,run_02,NA,8.96944444420,#d5d0fa,tired,feel tired,yes,1,0,6769,elephant,a elephant,CF119,5.3888,Tech,CF,m,White,,NA,run_02,NA,8.9694444441,#f2e1bc,pride,feel proud,yes,1,0,9471,mouse,a mouse,CF120,2.8664,Tech,CF,m,East Asian,,NA,run_02,NA,9.7277777782,#84eced,reasoning,figure out how to do things,yes,1,600,6883,mouse,a mouse,CF120,2.8664,Tech,CF,m,East Asian,,NA,run_02,NA,9.7277777783,#c2e9f5,tired,feel tired,yes,1,0,6437,mouse,a mouse,CF120,2.8664,Tech,CF,m,East Asian,,NA,run_02,NA,9.7277777784,#d1e48e,happy,feel happy,yes,1,0,4139,mouse,a mouse,CF120,2.8664,Tech,CF,m,East Asian,laughed,NA,run_02,NA,9.7277777785,#79e3f9,love,feel love,kinda,0.5,0,6690,mouse,a mouse,CF120,2.8664,Tech,CF,m,East Asian,,NA,run_02,NA,9.7277777786,#cae5a1,remembering,remember things,yes,1,0,4270,mouse,a mouse,CF120,2.8664,Tech,CF,m,East Asian,laughed,NA,run_02,NA,9.7277777787,#f2cdb9,embarrassed,feel embarrassed,no,0,0,9292,mouse,a mouse,CF120,2.8664,Tech,CF,m,East Asian,,NA,run_02,NA,9.7277777788,#aceab4,choices,make choices,yes,1,0,3104,mouse,a mouse,CF120,2.8664,Tech,CF,m,East Asian,,NA,run_02,NA,9.7277777789,#e3dbc8,hungry,get hungry,yes,1,0,3020,mouse,a mouse,CF120,2.8664,Tech,CF,m,East Asian,,NA,run_02,NA,9.72777777810,#ead1ec,angry,get angry,yes,1,0,4353,mouse,a mouse,CF120,2.8664,Tech,CF,m,East Asian,,NA,run_02,NA,9.72777777811,#b5eaa1,pain,feel pain,yes,1,0,2937,mouse,a mouse,CF120,2.8664,Tech,CF,m,East Asian,,NA,run_02,NA,9.72777777812,#f3d0d9,nauseated,feel sick -- like when you feel like you might throw up,yes,1,344,6416,mouse,a mouse,CF120,2.8664,Tech,CF,m,East Asian,,NA,run_02,NA,9.72777777813,#bce98d,depth,sense whether something is close by or far away,kinda,0.5,0,5769,mouse,a mouse,CF120,2.8664,Tech,CF,m,East Asian,,NA,run_02,NA,9.72777777814,#a9f2ce,disrespected,get hurt feelings,no,0,0,5878,mouse,a mouse,CF120,2.8664,Tech,CF,m,East Asian,changed answer from kinda to no,NA,run_02,NA,9.72777777815,#bae6c8,guilt,feel guilty,no,0,0,4211,mouse,a mouse,CF120,2.8664,Tech,CF,m,East Asian,,NA,run_02,NA,9.72777777816,#fde096,odors,smell things,yes,1,0,3697,mouse,a mouse,CF120,2.8664,Tech,CF,m,East Asian,,NA,run_02,NA,9.72777777817,#97eca5,depressed,feel sad,yes,1,0,4861,mouse,a mouse,CF120,2.8664,Tech,CF,m,East Asian,,NA,run_02,NA,9.72777777818,#94ebda,conscious,be aware of things,kinda,0.5,0,3498,mouse,a mouse,CF120,2.8664,Tech,CF,m,East Asian,,NA,run_02,NA,9.72777777819,#e3d3af,fear,feel scared,yes,1,0,2690,mouse,a mouse,CF120,2.8664,Tech,CF,m,East Asian,,NA,run_02,NA,9.72777777820,#5ef2da,temperature,sense temperatures,yes,1,0,6156,mouse,a mouse,CF120,2.8664,Tech,CF,m,East Asian,,NA,run_02,NA,9.7277777781,#8cf2c3,guilt,feel guilty,yes,1,0,5561,elephant,a elephant,CF121,3.180133333,Tech,CF,m,East Asian,NA,NA,run_02,NA,9.0805555562,#3eeaef,pain,feel pain,yes,1,0,4441,elephant,a elephant,CF121,3.180133333,Tech,CF,m,East Asian,NA,NA,run_02,NA,9.0805555563,#5ef2da,conscious,be aware of things,yes,1,0,5661,elephant,a elephant,CF121,3.180133333,Tech,CF,m,East Asian,NA,NA,run_02,NA,9.0805555564,#fde096,choices,make choices,yes,1,0,4735,elephant,a elephant,CF121,3.180133333,Tech,CF,m,East Asian,NA,NA,run_02,NA,9.0805555565,#f3c5fa,fear,feel scared,yes,1,0,4622,elephant,a elephant,CF121,3.180133333,Tech,CF,m,East Asian,NA,NA,run_02,NA,9.0805555566,#e3d3af,nauseated,feel sick -- like when you feel like you might throw up,no,0,0,8053,elephant,a elephant,CF121,3.180133333,Tech,CF,m,East Asian,NA,NA,run_02,NA,9.0805555567,#e3dbc8,angry,get angry,yes,1,0,4656,elephant,a elephant,CF121,3.180133333,Tech,CF,m,East Asian,NA,NA,run_02,NA,9.0805555568,#64f8f4,depressed,feel sad,yes,1,0,5103,elephant,a elephant,CF121,3.180133333,Tech,CF,m,East Asian,NA,NA,run_02,NA,9.0805555569,#d0e0c8,disrespected,get hurt feelings,yes,1,0,4934,elephant,a elephant,CF121,3.180133333,Tech,CF,m,East Asian,NA,NA,run_02,NA,9.08055555610,#97eca5,tired,feel tired,yes,1,0,4863,elephant,a elephant,CF121,3.180133333,Tech,CF,m,East Asian,NA,NA,run_02,NA,9.08055555611,#f3d0d9,embarrassed,feel embarrassed,yes,1,0,4712,elephant,a elephant,CF121,3.180133333,Tech,CF,m,East Asian,NA,NA,run_02,NA,9.08055555612,#79e3f9,remembering,remember things,yes,1,0,4738,elephant,a elephant,CF121,3.180133333,Tech,CF,m,East Asian,NA,NA,run_02,NA,9.08055555613,#84eced,pride,feel proud,yes,1,0,4649,elephant,a elephant,CF121,3.180133333,Tech,CF,m,East Asian,NA,NA,run_02,NA,9.08055555614,#aceab4,hungry,get hungry,yes,1,0,4722,elephant,a elephant,CF121,3.180133333,Tech,CF,m,East Asian,NA,NA,run_02,NA,9.08055555615,#f2cdb9,temperature,sense temperatures,yes,1,0,5038,elephant,a elephant,CF121,3.180133333,Tech,CF,m,East Asian,NA,NA,run_02,NA,9.08055555616,#f0d9a2,love,feel love,yes,1,0,5654,elephant,a elephant,CF121,3.180133333,Tech,CF,m,East Asian,NA,NA,run_02,NA,9.08055555617,#d2dcee,reasoning,figure out how to do things,yes,1,0,5367,elephant,a elephant,CF121,3.180133333,Tech,CF,m,East Asian,NA,NA,run_02,NA,9.08055555618,#94ebda,odors,smell things,yes,1,0,4634,elephant,a elephant,CF121,3.180133333,Tech,CF,m,East Asian,NA,NA,run_02,NA,9.08055555619,#d0d9ae,depth,sense whether something is close by or far away,yes,1,0,12986,elephant,a elephant,CF121,3.180133333,Tech,CF,m,East Asian,NA,NA,run_02,NA,9.08055555620,#cde8e2,happy,feel happy,yes,1,0,5143,elephant,a elephant,CF121,3.180133333,Tech,CF,m,East Asian,NA,NA,run_02,NA,9.0805555561,#d0e0c8,angry,get angry,no,0,0,6485,robot,a robot,CF122,2.875766667,Tech,CF,f,White,NA,NA,run_02,NA,8.6944444442,#a7dcf9,remembering,remember things,yes,1,0,6112,robot,a robot,CF122,2.875766667,Tech,CF,f,White,NA,NA,run_02,NA,8.6944444443,#5ef2da,fear,feel scared,no,0,0,5500,robot,a robot,CF122,2.875766667,Tech,CF,f,White,NA,NA,run_02,NA,8.6944444444,#94ebda,guilt,feel guilty,kinda,0.5,0,6146,robot,a robot,CF122,2.875766667,Tech,CF,f,White,NA,NA,run_02,NA,8.6944444445,#dedfa2,tired,feel tired,no,0,0,6854,robot,a robot,CF122,2.875766667,Tech,CF,f,White,NA,NA,run_02,NA,8.6944444446,#e3d3af,choices,make choices,kinda,0.5,0,7948,robot,a robot,CF122,2.875766667,Tech,CF,f,White,NA,NA,run_02,NA,8.6944444447,#b4dbe7,depth,sense whether something is close by or far away,no,0,0,9294,robot,a robot,CF122,2.875766667,Tech,CF,f,White,NA,NA,run_02,NA,8.6944444448,#9be4c0,love,feel love,no,0,0,5485,robot,a robot,CF122,2.875766667,Tech,CF,f,White,NA,NA,run_02,NA,8.6944444449,#c3e5b5,conscious,be aware of things,yes,1,0,6807,robot,a robot,CF122,2.875766667,Tech,CF,f,White,NA,NA,run_02,NA,8.69444444410,#aceab4,temperature,sense temperatures,no,0,0,6185,robot,a robot,CF122,2.875766667,Tech,CF,f,White,NA,NA,run_02,NA,8.69444444411,#d2dcee,disrespected,get hurt feelings,no,0,0,5764,robot,a robot,CF122,2.875766667,Tech,CF,f,White,NA,NA,run_02,NA,8.69444444412,#f3c5fa,reasoning,figure out how to do things,yes,1,0,6598,robot,a robot,CF122,2.875766667,Tech,CF,f,White,NA,NA,run_02,NA,8.69444444413,#d0d9ae,nauseated,feel sick -- like when you feel like you might throw up,no,0,0,8011,robot,a robot,CF122,2.875766667,Tech,CF,f,White,NA,NA,run_02,NA,8.69444444414,#97eca5,depressed,feel sad,no,0,0,6415,robot,a robot,CF122,2.875766667,Tech,CF,f,White,NA,NA,run_02,NA,8.69444444415,#f3d0d9,happy,feel happy,yes,1,0,5604,robot,a robot,CF122,2.875766667,Tech,CF,f,White,NA,NA,run_02,NA,8.69444444416,#79e3f9,pain,feel pain,no,0,0,5629,robot,a robot,CF122,2.875766667,Tech,CF,f,White,NA,NA,run_02,NA,8.69444444417,#ead1ec,odors,smell things,no,0,0,5892,robot,a robot,CF122,2.875766667,Tech,CF,f,White,NA,NA,run_02,NA,8.69444444418,#fde096,pride,feel proud,no,0,0,9463,robot,a robot,CF122,2.875766667,Tech,CF,f,White,NA,NA,run_02,NA,8.69444444419,#bfd6fa,hungry,get hungry,no,0,0,5411,robot,a robot,CF122,2.875766667,Tech,CF,f,White,NA,NA,run_02,NA,8.69444444420,#d1e48e,embarrassed,feel embarrassed,no,0,0,6586,robot,a robot,CF122,2.875766667,Tech,CF,f,White,NA,NA,run_02,NA,8.6944444441,#ead1ec,fear,feel scared,yes,1,0,5224,beetle,a beetle,CF123,2.302966667,Tech,CF,f,Mixed,NA,NA,run_02,NA,9.3888888892,#e3d3af,angry,get angry,kinda,0.5,0,7643,beetle,a beetle,CF123,2.302966667,Tech,CF,f,Mixed,NA,NA,run_02,NA,9.3888888893,#79e3f9,disrespected,get hurt feelings,yes,1,0,4695,beetle,a beetle,CF123,2.302983333,Tech,CF,f,Mixed,NA,NA,run_02,NA,9.3888888894,#f3d0d9,pain,feel pain,yes,1,0,12534,beetle,a beetle,CF123,2.302983333,Tech,CF,f,Mixed,NA,NA,run_02,NA,9.3888888895,#c3e5b5,depressed,feel sad,kinda,0.5,0,5962,beetle,a beetle,CF123,2.302983333,Tech,CF,f,Mixed,NA,NA,run_02,NA,9.3888888896,#d2dcee,guilt,feel guilty,no,0,0,4585,beetle,a beetle,CF123,2.302983333,Tech,CF,f,Mixed,NA,NA,run_02,NA,9.3888888897,#f3c5fa,choices,make choices,kinda,0.5,0,3525,beetle,a beetle,CF123,2.302983333,Tech,CF,f,Mixed,NA,NA,run_02,NA,9.3888888898,#94ebda,love,feel love,no,0,0,4512,beetle,a beetle,CF123,2.302983333,Tech,CF,f,Mixed,NA,NA,run_02,NA,9.3888888899,#dee7bc,remembering,remember things,no,0,0,3608,beetle,a beetle,CF123,2.302983333,Tech,CF,f,Mixed,NA,NA,run_02,NA,9.38888888910,#a9e7e4,nauseated,feel sick -- like when you feel like you might throw up,no,0,0,7038,beetle,a beetle,CF123,2.302983333,Tech,CF,f,Mixed,NA,NA,run_02,NA,9.38888888911,#84eced,conscious,be aware of things,yes,1,0,4961,beetle,a beetle,CF123,2.302983333,Tech,CF,f,Mixed,NA,NA,run_02,NA,9.38888888912,#9be4c0,reasoning,figure out how to do things,kinda,0.5,0,4788,beetle,a beetle,CF123,2.302983333,Tech,CF,f,Mixed,NA,NA,run_02,NA,9.38888888913,#bfd6fa,hungry,get hungry,yes,1,0,3173,beetle,a beetle,CF123,2.302983333,Tech,CF,f,Mixed,NA,NA,run_02,NA,9.38888888914,#f0d27e,tired,feel tired,yes,1,0,4967,beetle,a beetle,CF123,2.302983333,Tech,CF,f,Mixed,NA,NA,run_02,NA,9.38888888915,#f2cdb9,pride,feel proud,yes,1,0,2765,beetle,a beetle,CF123,2.302983333,Tech,CF,f,Mixed,NA,NA,run_02,NA,9.38888888916,#d1e48e,odors,smell things,no,0,0,3564,beetle,a beetle,CF123,2.302983333,Tech,CF,f,Mixed,NA,NA,run_02,NA,9.38888888917,#fdcc93,depth,sense whether something is close by or far away,yes,1,0,4460,beetle,a beetle,CF123,2.302983333,Tech,CF,f,Mixed,NA,NA,run_02,NA,9.38888888918,#a7dcf9,embarrassed,feel embarrassed,no,0,0,3108,beetle,a beetle,CF123,2.302983333,Tech,CF,f,Mixed,NA,NA,run_02,NA,9.38888888919,#e3dbc8,temperature,sense temperatures,kinda,0.5,0,4617,beetle,a beetle,CF123,2.302983333,Tech,CF,f,Mixed,NA,NA,run_02,NA,9.38888888920,#dedfa2,happy,feel happy,yes,1,0,2636,beetle,a beetle,CF123,2.302983333,Tech,CF,f,Mixed,NA,NA,run_02,NA,9.3888888891,#8cf2c3,pain,feel pain,yes,1,0,7282,mouse,a mouse,CF124,5.130566667,Tech,CF,m,White,NA,NA,run_02,NA,7.7333333332,#9be4c0,fear,feel scared,yes,1,0,7616,mouse,a mouse,CF124,5.130566667,Tech,CF,m,White,NA,NA,run_02,NA,7.7333333333,#c3e5b5,remembering,remember things,kinda,0.5,0,6792,mouse,a mouse,CF124,5.130583333,Tech,CF,m,White,NA,NA,run_02,NA,7.7333333334,#bce98d,depressed,feel sad,kinda,0.5,0,6468,mouse,a mouse,CF124,5.130583333,Tech,CF,m,White,NA,NA,run_02,NA,7.7333333335,#a9f2ce,choices,make choices,yes,1,0,5844,mouse,a mouse,CF124,5.130583333,Tech,CF,m,White,NA,NA,run_02,NA,7.7333333336,#d2dcee,depth,sense whether something is close by or far away,kinda,0.5,0,7758,mouse,a mouse,CF124,5.130583333,Tech,CF,m,White,NA,NA,run_02,NA,7.7333333337,#3eeaef,guilt,feel guilty,no,0,0,14090,mouse,a mouse,CF124,5.130583333,Tech,CF,m,White,NA,NA,run_02,NA,7.7333333338,#d1e48e,odors,smell things,yes,1,0,5630,mouse,a mouse,CF124,5.130583333,Tech,CF,m,White,NA,NA,run_02,NA,7.7333333339,#a7dcf9,pride,feel proud,kinda,0.5,0,6120,mouse,a mouse,CF124,5.130583333,Tech,CF,m,White,NA,NA,run_02,NA,7.73333333310,#94ebda,reasoning,figure out how to do things,yes,1,0,5741,mouse,a mouse,CF124,5.130583333,Tech,CF,m,White,NA,NA,run_02,NA,7.73333333311,#f3d0d9,hungry,get hungry,yes,1,0,5859,mouse,a mouse,CF124,5.130583333,Tech,CF,m,White,NA,NA,run_02,NA,7.73333333312,#d5d0fa,happy,feel happy,kinda,0.5,0,5734,mouse,a mouse,CF124,5.130583333,Tech,CF,m,White,NA,NA,run_02,NA,7.73333333313,#d0d9ae,love,feel love,yes,1,0,5164,mouse,a mouse,CF124,5.130583333,Tech,CF,m,White,NA,NA,run_02,NA,7.73333333314,#c2e9f5,disrespected,get hurt feelings,yes,1,0,6067,mouse,a mouse,CF124,5.130583333,Tech,CF,m,White,NA,NA,run_02,NA,7.73333333315,#dedfa2,temperature,sense temperatures,yes,1,0,5108,mouse,a mouse,CF124,5.130583333,Tech,CF,m,White,NA,NA,run_02,NA,7.73333333316,#f0d27e,angry,get angry,kinda,0.5,0,5114,mouse,a mouse,CF124,5.130583333,Tech,CF,m,White,NA,NA,run_02,NA,7.73333333317,#b5eaa1,embarrassed,feel embarrassed,no,0,0,5362,mouse,a mouse,CF124,5.130583333,Tech,CF,m,White,NA,NA,run_02,NA,7.73333333318,#cae5a1,conscious,be aware of things,yes,1,0,15036,mouse,a mouse,CF124,5.130583333,Tech,CF,m,White,NA,NA,run_02,NA,7.73333333319,#aceab4,nauseated,feel sick -- like when you feel like you might throw up,kinda,0.5,0,9131,mouse,a mouse,CF124,5.130583333,Tech,CF,m,White,NA,NA,run_02,NA,7.73333333320,#fddbd0,tired,feel tired,yes,1,0,5124,mouse,a mouse,CF124,5.130583333,Tech,CF,m,White,NA,NA,run_02,NA,7.7333333331,#d1e48e,guilt,feel guilty,no,0,0,7213,computer,a computer,CF125,2.314683333,Tech,CF,f,Hispanic or Latino/a,,NA,run_02,NA,7.9333333332,#3eeaef,nauseated,feel sick -- like when you feel like you might throw up,no,0,0,5855,computer,a computer,CF125,2.314683333,Tech,CF,f,Hispanic or Latino/a,,NA,run_02,NA,7.9333333333,#79e3f9,tired,feel tired,no,0,0,5824,computer,a computer,CF125,2.314683333,Tech,CF,f,Hispanic or Latino/a,,NA,run_02,NA,7.9333333334,#b5eaa1,depressed,feel sad,no,0,0,3823,computer,a computer,CF125,2.3147,Tech,CF,f,Hispanic or Latino/a,,NA,run_02,NA,7.9333333335,#e3dbc8,fear,feel scared,no,0,0,3942,computer,a computer,CF125,2.3147,Tech,CF,f,Hispanic or Latino/a,,NA,run_02,NA,7.9333333336,#f3d0d9,conscious,be aware of things,yes,1,0,8881,computer,a computer,CF125,2.3147,Tech,CF,f,Hispanic or Latino/a,,NA,run_02,NA,7.9333333337,#ead1ec,temperature,sense temperatures,no,0,0,7519,computer,a computer,CF125,2.3147,Tech,CF,f,Hispanic or Latino/a,,NA,run_02,NA,7.9333333338,#64f8f4,hungry,get hungry,no,0,0,3298,computer,a computer,CF125,2.3147,Tech,CF,f,Hispanic or Latino/a,,NA,run_02,NA,7.9333333339,#d0e0c8,disrespected,get hurt feelings,no,0,0,4255,computer,a computer,CF125,2.3147,Tech,CF,f,Hispanic or Latino/a,,NA,run_02,NA,7.93333333310,#fdcc93,reasoning,figure out how to do things,yes,1,0,6162,computer,a computer,CF125,2.3147,Tech,CF,f,Hispanic or Latino/a,,NA,run_02,NA,7.93333333311,#b4dbe7,happy,feel happy,no,0,0,3719,computer,a computer,CF125,2.3147,Tech,CF,f,Hispanic or Latino/a,,NA,run_02,NA,7.93333333312,#dedfa2,depth,sense whether something is close by or far away,no,0,0,6550,computer,a computer,CF125,2.3147,Tech,CF,f,Hispanic or Latino/a,,NA,run_02,NA,7.93333333313,#c2e9f5,embarrassed,feel embarrassed,no,0,0,4693,computer,a computer,CF125,2.3147,Tech,CF,f,Hispanic or Latino/a,,NA,run_02,NA,7.93333333314,#f0d27e,pride,feel proud,kinda,0.5,0,9315,computer,a computer,CF125,2.3147,Tech,CF,f,Hispanic or Latino/a,changed answer from no to kinda,NA,run_02,NA,7.93333333315,#bfd6fa,love,feel love,no,0,0,5263,computer,a computer,CF125,2.3147,Tech,CF,f,Hispanic or Latino/a,,NA,run_02,NA,7.93333333316,#d5d0fa,remembering,remember things,yes,1,0,6421,computer,a computer,CF125,2.3147,Tech,CF,f,Hispanic or Latino/a,,NA,run_02,NA,7.93333333317,#f2e1bc,odors,smell things,no,0,0,3474,computer,a computer,CF125,2.3147,Tech,CF,f,Hispanic or Latino/a,,NA,run_02,NA,7.93333333318,#e3df8e,pain,feel pain,no,0,0,3946,computer,a computer,CF125,2.3147,Tech,CF,f,Hispanic or Latino/a,,NA,run_02,NA,7.93333333319,#5ef2da,angry,get angry,no,0,0,3970,computer,a computer,CF125,2.3147,Tech,CF,f,Hispanic or Latino/a,,NA,run_02,NA,7.93333333320,#e3d3af,choices,make choices,no,0,0,6106,computer,a computer,CF125,2.3147,Tech,CF,f,Hispanic or Latino/a,,NA,run_02,NA,7.9333333331,#84eced,happy,feel happy,yes,1,0,7171,bird,a bird,CF126,3.42615,Tech,CF,f,Hispanic or Latino/a,parent laughed,NA,run_02,NA,7.9252,#bce98d,love,feel love,yes,1,0,8261,bird,a bird,CF126,3.42615,Tech,CF,f,Hispanic or Latino/a,parent laughed,NA,run_02,NA,7.9253,#fdcc93,depth,sense whether something is close by or far away,kinda,0.5,0,11374,bird,a bird,CF126,3.42615,Tech,CF,f,Hispanic or Latino/a,laughed,NA,run_02,NA,7.9254,#f2e1bc,conscious,be aware of things,no,0,0,9901,bird,a bird,CF126,3.42615,Tech,CF,f,Hispanic or Latino/a,,NA,run_02,NA,7.9255,#fde096,nauseated,feel sick -- like when you feel like you might throw up,no,0,0,8743,bird,a bird,CF126,3.42615,Tech,CF,f,Hispanic or Latino/a,laughed,NA,run_02,NA,7.9256,#a9e7e4,pain,feel pain,yes,1,0,6786,bird,a bird,CF126,3.42615,Tech,CF,f,Hispanic or Latino/a,,NA,run_02,NA,7.9257,#f3d0d9,reasoning,figure out how to do things,yes,1,0,7239,bird,a bird,CF126,3.42615,Tech,CF,f,Hispanic or Latino/a,,NA,run_02,NA,7.9258,#cae5a1,disrespected,get hurt feelings,no,0,0,5580,bird,a bird,CF126,3.42615,Tech,CF,f,Hispanic or Latino/a,laughed,NA,run_02,NA,7.9259,#e3df8e,pride,feel proud,yes,1,0,8028,bird,a bird,CF126,3.42615,Tech,CF,f,Hispanic or Latino/a,,NA,run_02,NA,7.92510,#97eca5,fear,feel scared,yes,1,0,7451,bird,a bird,CF126,3.42615,Tech,CF,f,Hispanic or Latino/a,,NA,run_02,NA,7.92511,#d1e48e,remembering,remember things,kinda,0.5,0,7247,bird,a bird,CF126,3.42615,Tech,CF,f,Hispanic or Latino/a,,NA,run_02,NA,7.92512,#d5d0fa,hungry,get hungry,yes,1,0,5750,bird,a bird,CF126,3.42615,Tech,CF,f,Hispanic or Latino/a,,NA,run_02,NA,7.92513,#aceab4,odors,smell things,yes,1,0,5655,bird,a bird,CF126,3.42615,Tech,CF,f,Hispanic or Latino/a,,NA,run_02,NA,7.92514,#9be4c0,depressed,feel sad,yes,1,0,6250,bird,a bird,CF126,3.42615,Tech,CF,f,Hispanic or Latino/a,,NA,run_02,NA,7.92515,#3eeaef,embarrassed,feel embarrassed,no,0,0,6561,bird,a bird,CF126,3.42615,Tech,CF,f,Hispanic or Latino/a,,NA,run_02,NA,7.92516,#dedfa2,guilt,feel guilty,no,0,0,7453,bird,a bird,CF126,3.42615,Tech,CF,f,Hispanic or Latino/a,,NA,run_02,NA,7.92517,#b4dbe7,temperature,sense temperatures,yes,1,0,7331,bird,a bird,CF126,3.42615,Tech,CF,f,Hispanic or Latino/a,,NA,run_02,NA,7.92518,#94ebda,tired,feel tired,yes,1,0,6329,bird,a bird,CF126,3.42615,Tech,CF,f,Hispanic or Latino/a,,NA,run_02,NA,7.92519,#d2dcee,choices,make choices,kinda,0.5,0,8359,bird,a bird,CF126,3.42615,Tech,CF,f,Hispanic or Latino/a,,NA,run_02,NA,7.92520,#d0e0c8,angry,get angry,yes,1,0,7763,bird,a bird,CF126,3.42615,Tech,CF,f,Hispanic or Latino/a,,NA,run_02,NA,7.9251,#c2e9f5,remembering,remember things,yes,1,0,5154,robot,a robot,CF127,3.13195,Tech,CF,f,"Native American, American Indian, or Alaska Native, White",,NA,run_02,NA,7.5527777782,#bce98d,odors,smell things,no,0,0,6312,robot,a robot,CF127,3.13195,Tech,CF,f,"Native American, American Indian, or Alaska Native, White",laughed,NA,run_02,NA,7.5527777783,#cae5a1,pain,feel pain,yes,1,0,5150,robot,a robot,CF127,3.13195,Tech,CF,f,"Native American, American Indian, or Alaska Native, White",,NA,run_02,NA,7.5527777784,#97eca5,depth,sense whether something is close by or far away,yes,1,0,7931,robot,a robot,CF127,3.13195,Tech,CF,f,"Native American, American Indian, or Alaska Native, White",,NA,run_02,NA,7.5527777785,#a9e7e4,pride,feel proud,yes,1,0,5405,robot,a robot,CF127,3.13195,Tech,CF,f,"Native American, American Indian, or Alaska Native, White",laughed,NA,run_02,NA,7.5527777786,#d0d9ae,embarrassed,feel embarrassed,yes,1,0,5102,robot,a robot,CF127,3.13195,Tech,CF,f,"Native American, American Indian, or Alaska Native, White",,NA,run_02,NA,7.5527777787,#d2dcee,choices,make choices,yes,1,0,5301,robot,a robot,CF127,3.13195,Tech,CF,f,"Native American, American Indian, or Alaska Native, White",,NA,run_02,NA,7.5527777788,#b4dbe7,angry,get angry,yes,1,0,5167,robot,a robot,CF127,3.13195,Tech,CF,f,"Native American, American Indian, or Alaska Native, White",,NA,run_02,NA,7.5527777789,#79e3f9,disrespected,get hurt feelings,yes,1,0,6378,robot,a robot,CF127,3.13195,Tech,CF,f,"Native American, American Indian, or Alaska Native, White",,NA,run_02,NA,7.55277777810,#f3d0d9,fear,feel scared,yes,1,0,5581,robot,a robot,CF127,3.13195,Tech,CF,f,"Native American, American Indian, or Alaska Native, White",,NA,run_02,NA,7.55277777811,#3eeaef,depressed,feel sad,yes,1,0,5817,robot,a robot,CF127,3.13195,Tech,CF,f,"Native American, American Indian, or Alaska Native, White",,NA,run_02,NA,7.55277777812,#f2e1bc,reasoning,figure out how to do things,yes,1,0,6098,robot,a robot,CF127,3.13195,Tech,CF,f,"Native American, American Indian, or Alaska Native, White",laughed,NA,run_02,NA,7.55277777813,#d5d0fa,conscious,be aware of things,yes,1,0,5693,robot,a robot,CF127,3.13195,Tech,CF,f,"Native American, American Indian, or Alaska Native, White",,NA,run_02,NA,7.55277777814,#d0e0c8,temperature,sense temperatures,yes,1,0,6017,robot,a robot,CF127,3.13195,Tech,CF,f,"Native American, American Indian, or Alaska Native, White",,NA,run_02,NA,7.55277777815,#64f8f4,nauseated,feel sick -- like when you feel like you might throw up,no,0,0,7148,robot,a robot,CF127,3.13195,Tech,CF,f,"Native American, American Indian, or Alaska Native, White",,NA,run_02,NA,7.55277777816,#bfd6fa,guilt,feel guilty,yes,1,0,5006,robot,a robot,CF127,3.13195,Tech,CF,f,"Native American, American Indian, or Alaska Native, White",,NA,run_02,NA,7.55277777817,#8cf2c3,hungry,get hungry,no,0,1,5255,robot,a robot,CF127,3.13195,Tech,CF,f,"Native American, American Indian, or Alaska Native, White",laughed,NA,run_02,NA,7.55277777818,#fdcc93,love,feel love,yes,1,0,5380,robot,a robot,CF127,3.13195,Tech,CF,f,"Native American, American Indian, or Alaska Native, White",,NA,run_02,NA,7.55277777819,#cde8e2,happy,feel happy,yes,1,0,5184,robot,a robot,CF127,3.13195,Tech,CF,f,"Native American, American Indian, or Alaska Native, White",,NA,run_02,NA,7.55277777820,#f2cdb9,tired,feel tired,yes,1,0,5770,robot,a robot,CF127,3.13195,Tech,CF,f,"Native American, American Indian, or Alaska Native, White",,NA,run_02,NA,7.5527777781,#d5d0fa,choices,make choices,no,0,0,7080,robot,a robot,CF128,2.95205,Tech,CF,m,Hispanic or Latino/a,,NA,run_02,NA,7.152,#bce98d,nauseated,feel sick -- like when you feel like you might throw up,no,0,0,5876,robot,a robot,CF128,2.95205,Tech,CF,m,Hispanic or Latino/a,,NA,run_02,NA,7.153,#a9e7e4,remembering,remember things,kinda,0.5,0,6438,robot,a robot,CF128,2.95205,Tech,CF,m,Hispanic or Latino/a,,NA,run_02,NA,7.154,#cae5a1,disrespected,get hurt feelings,no,0,0,4326,robot,a robot,CF128,2.95205,Tech,CF,m,Hispanic or Latino/a,,NA,run_02,NA,7.155,#bfd6fa,reasoning,figure out how to do things,kinda,0.5,0,6006,robot,a robot,CF128,2.95205,Tech,CF,m,Hispanic or Latino/a,,NA,run_02,NA,7.156,#fdcc93,angry,get angry,no,0,0,5470,robot,a robot,CF128,2.95205,Tech,CF,m,Hispanic or Latino/a,,NA,run_02,NA,7.157,#aceab4,pain,feel pain,no,0,0,2761,robot,a robot,CF128,2.95205,Tech,CF,m,Hispanic or Latino/a,,NA,run_02,NA,7.158,#a9f2ce,love,feel love,no,0,0,3268,robot,a robot,CF128,2.95205,Tech,CF,m,Hispanic or Latino/a,,NA,run_02,NA,7.159,#f3d0d9,depressed,feel sad,no,0,0,3092,robot,a robot,CF128,2.95205,Tech,CF,m,Hispanic or Latino/a,,NA,run_02,NA,7.1510,#c3e5b5,conscious,be aware of things,no,0,0,3803,robot,a robot,CF128,2.95205,Tech,CF,m,Hispanic or Latino/a,,NA,run_02,NA,7.1511,#f3c5fa,temperature,sense temperatures,kinda,0.5,0,4451,robot,a robot,CF128,2.95205,Tech,CF,m,Hispanic or Latino/a,,NA,run_02,NA,7.1512,#ead1ec,tired,feel tired,no,0,0,3403,robot,a robot,CF128,2.95205,Tech,CF,m,Hispanic or Latino/a,,NA,run_02,NA,7.1513,#84eced,guilt,feel guilty,no,0,0,3498,robot,a robot,CF128,2.95205,Tech,CF,m,Hispanic or Latino/a,,NA,run_02,NA,7.1514,#79e3f9,pride,feel proud,kinda,0.5,0,5606,robot,a robot,CF128,2.95205,Tech,CF,m,Hispanic or Latino/a,parent laughed,NA,run_02,NA,7.1515,#d2dcee,odors,smell things,no,0,0,3822,robot,a robot,CF128,2.95205,Tech,CF,m,Hispanic or Latino/a,,NA,run_02,NA,7.1516,#64f8f4,happy,feel happy,yes,1,0,5873,robot,a robot,CF128,2.95205,Tech,CF,m,Hispanic or Latino/a,,NA,run_02,NA,7.1517,#f2e1bc,hungry,get hungry,no,0,0,4844,robot,a robot,CF128,2.95205,Tech,CF,m,Hispanic or Latino/a,,NA,run_02,NA,7.1518,#d0e0c8,embarrassed,feel embarrassed,no,0,0,3690,robot,a robot,CF128,2.95205,Tech,CF,m,Hispanic or Latino/a,,NA,run_02,NA,7.1519,#fde096,depth,sense whether something is close by or far away,no,0,0,5346,robot,a robot,CF128,2.95205,Tech,CF,m,Hispanic or Latino/a,,NA,run_02,NA,7.1520,#f0d9a2,fear,feel scared,no,0,0,3718,robot,a robot,CF128,2.95205,Tech,CF,m,Hispanic or Latino/a,,NA,run_02,NA,7.151,#d1e48e,reasoning,figure out how to do things,yes,1,0,7983,bird,a bird,CF129,3.835583333,Tech,CF,f,South or Southeast Asian,NA,NA,run_02,NA,9.6527777782,#f3c5fa,guilt,feel guilty,kinda,0.5,0,13319,bird,a bird,CF129,3.835583333,Tech,CF,f,South or Southeast Asian,NA,NA,run_02,NA,9.6527777783,#e3df8e,depth,sense whether something is close by or far away,kinda,0.5,0,9852,bird,a bird,CF129,3.835583333,Tech,CF,f,South or Southeast Asian,NA,NA,run_02,NA,9.6527777784,#5ef2da,depressed,feel sad,no,0,0,8240,bird,a bird,CF129,3.835583333,Tech,CF,f,South or Southeast Asian,NA,NA,run_02,NA,9.6527777785,#b5eaa1,conscious,be aware of things,yes,1,0,6941,bird,a bird,CF129,3.835583333,Tech,CF,f,South or Southeast Asian,NA,NA,run_02,NA,9.6527777786,#cde8e2,happy,feel happy,yes,1,0,6723,bird,a bird,CF129,3.835583333,Tech,CF,f,South or Southeast Asian,NA,NA,run_02,NA,9.6527777787,#c3e5b5,hungry,get hungry,yes,1,0,4689,bird,a bird,CF129,3.835583333,Tech,CF,f,South or Southeast Asian,NA,NA,run_02,NA,9.6527777788,#b4dbe7,nauseated,feel sick -- like when you feel like you might throw up,no,0,0,9454,bird,a bird,CF129,3.835583333,Tech,CF,f,South or Southeast Asian,NA,NA,run_02,NA,9.6527777789,#f3d0d9,love,feel love,yes,1,0,7414,bird,a bird,CF129,3.835583333,Tech,CF,f,South or Southeast Asian,NA,NA,run_02,NA,9.65277777810,#d2dcee,pain,feel pain,yes,1,0,4819,bird,a bird,CF129,3.835583333,Tech,CF,f,South or Southeast Asian,NA,NA,run_02,NA,9.65277777811,#84eced,embarrassed,feel embarrassed,no,0,0,4872,bird,a bird,CF129,3.835583333,Tech,CF,f,South or Southeast Asian,NA,NA,run_02,NA,9.65277777812,#bfd6fa,disrespected,get hurt feelings,no,0,0,5247,bird,a bird,CF129,3.835583333,Tech,CF,f,South or Southeast Asian,NA,NA,run_02,NA,9.65277777813,#e3d3af,choices,make choices,yes,1,0,5193,bird,a bird,CF129,3.835583333,Tech,CF,f,South or Southeast Asian,NA,NA,run_02,NA,9.65277777814,#ead1ec,tired,feel tired,yes,1,0,5006,bird,a bird,CF129,3.835583333,Tech,CF,f,South or Southeast Asian,NA,NA,run_02,NA,9.65277777815,#bae6c8,pride,feel proud,kinda,0.5,0,5198,bird,a bird,CF129,3.835583333,Tech,CF,f,South or Southeast Asian,NA,NA,run_02,NA,9.65277777816,#8cf2c3,fear,feel scared,yes,1,0,4657,bird,a bird,CF129,3.835583333,Tech,CF,f,South or Southeast Asian,NA,NA,run_02,NA,9.65277777817,#a9f2ce,temperature,sense temperatures,yes,1,0,5867,bird,a bird,CF129,3.835583333,Tech,CF,f,South or Southeast Asian,NA,NA,run_02,NA,9.65277777818,#94ebda,odors,smell things,yes,1,0,8275,bird,a bird,CF129,3.835583333,Tech,CF,f,South or Southeast Asian,NA,NA,run_02,NA,9.65277777819,#d0e0c8,angry,get angry,kinda,0.5,0,5434,bird,a bird,CF129,3.835583333,Tech,CF,f,South or Southeast Asian,NA,NA,run_02,NA,9.65277777820,#fdcc93,remembering,remember things,kinda,0.5,0,5630,bird,a bird,CF129,3.835583333,Tech,CF,f,South or Southeast Asian,NA,NA,run_02,NA,9.6527777781,#e3d3af,angry,get angry,kinda,0.5,0,12784,goat,a goat,CF130,4.190133333,Tech,CF,f,East Asian,NA,NA,run_02,NA,7.2333333332,#cde8e2,pride,feel proud,yes,1,0,8789,goat,a goat,CF130,4.190133333,Tech,CF,f,East Asian,NA,NA,run_02,NA,7.2333333333,#fddbd0,reasoning,figure out how to do things,kinda,0.5,0,11588,goat,a goat,CF130,4.19015,Tech,CF,f,East Asian,NA,NA,run_02,NA,7.2333333334,#fde096,conscious,be aware of things,yes,1,0,8584,goat,a goat,CF130,4.19015,Tech,CF,f,East Asian,NA,NA,run_02,NA,7.2333333335,#a9e7e4,depressed,feel sad,no,0,0,13926,goat,a goat,CF130,4.19015,Tech,CF,f,East Asian,NA,NA,run_02,NA,7.2333333336,#d2dcee,temperature,sense temperatures,yes,1,0,14408,goat,a goat,CF130,4.19015,Tech,CF,f,East Asian,NA,NA,run_02,NA,7.2333333337,#8cf2c3,nauseated,feel sick -- like when you feel like you might throw up,no,0,0,8263,goat,a goat,CF130,4.19015,Tech,CF,f,East Asian,NA,NA,run_02,NA,7.2333333338,#5ef2da,love,feel love,yes,1,0,7557,goat,a goat,CF130,4.19015,Tech,CF,f,East Asian,NA,NA,run_02,NA,7.2333333339,#a7dcf9,embarrassed,feel embarrassed,kinda,0.5,0,6138,goat,a goat,CF130,4.19015,Tech,CF,f,East Asian,NA,NA,run_02,NA,7.23333333310,#a9f2ce,happy,feel happy,yes,1,0,10609,goat,a goat,CF130,4.19015,Tech,CF,f,East Asian,NA,NA,run_02,NA,7.23333333311,#b4dbe7,remembering,remember things,kinda,0.5,0,6552,goat,a goat,CF130,4.19015,Tech,CF,f,East Asian,NA,NA,run_02,NA,7.23333333312,#d5d0fa,hungry,get hungry,yes,1,0,6913,goat,a goat,CF130,4.19015,Tech,CF,f,East Asian,NA,NA,run_02,NA,7.23333333313,#c2e9f5,pain,feel pain,kinda,0.5,0,7081,goat,a goat,CF130,4.19015,Tech,CF,f,East Asian,NA,NA,run_02,NA,7.23333333314,#f2e1bc,disrespected,get hurt feelings,no,0,0,10203,goat,a goat,CF130,4.19015,Tech,CF,f,East Asian,NA,NA,run_02,NA,7.23333333315,#3eeaef,depth,sense whether something is close by or far away,no,0,0,9851,goat,a goat,CF130,4.19015,Tech,CF,f,East Asian,NA,NA,run_02,NA,7.23333333316,#d0d9ae,guilt,feel guilty,kinda,0.5,0,6581,goat,a goat,CF130,4.19015,Tech,CF,f,East Asian,NA,NA,run_02,NA,7.23333333317,#dedfa2,choices,make choices,no,0,0,11893,goat,a goat,CF130,4.19015,Tech,CF,f,East Asian,NA,NA,run_02,NA,7.23333333318,#f0d27e,tired,feel tired,yes,1,0,5434,goat,a goat,CF130,4.19015,Tech,CF,f,East Asian,NA,NA,run_02,NA,7.23333333319,#79e3f9,odors,smell things,yes,1,0,6005,goat,a goat,CF130,4.19015,Tech,CF,f,East Asian,NA,NA,run_02,NA,7.23333333320,#aceab4,fear,feel scared,kinda,0.5,0,5961,goat,a goat,CF130,4.19015,Tech,CF,f,East Asian,NA,NA,run_02,NA,7.2333333331,#bce98d,disrespected,get hurt feelings,kinda,0.5,0,24173,mouse,a mouse,CF131,3.291733333,Tech,CF,f,East Asian,NA,NA,run_02,NA,9.9444444442,#64f8f4,angry,get angry,yes,1,0,3948,mouse,a mouse,CF131,3.291733333,Tech,CF,f,East Asian,NA,NA,run_02,NA,9.9444444443,#bfd6fa,embarrassed,feel embarrassed,kinda,0.5,0,22414,mouse,a mouse,CF131,3.291733333,Tech,CF,f,East Asian,NA,NA,run_02,NA,9.9444444444,#ead1ec,fear,feel scared,yes,1,0,2183,mouse,a mouse,CF131,3.291733333,Tech,CF,f,East Asian,NA,NA,run_02,NA,9.9444444445,#e3d3af,tired,feel tired,yes,1,0,8373,mouse,a mouse,CF131,3.291733333,Tech,CF,f,East Asian,NA,NA,run_02,NA,9.9444444446,#d0e0c8,depressed,feel sad,kinda,0.5,0,7337,mouse,a mouse,CF131,3.291733333,Tech,CF,f,East Asian,NA,NA,run_02,NA,9.9444444447,#e3df8e,love,feel love,yes,1,0,3462,mouse,a mouse,CF131,3.291733333,Tech,CF,f,East Asian,NA,NA,run_02,NA,9.9444444448,#d5d0fa,guilt,feel guilty,kinda,0.5,0,6529,mouse,a mouse,CF131,3.291733333,Tech,CF,f,East Asian,NA,NA,run_02,NA,9.9444444449,#a7dcf9,temperature,sense temperatures,yes,1,0,2582,mouse,a mouse,CF131,3.291733333,Tech,CF,f,East Asian,NA,NA,run_02,NA,9.94444444410,#fdcc93,nauseated,feel sick -- like when you feel like you might throw up,yes,1,0,16781,mouse,a mouse,CF131,3.291733333,Tech,CF,f,East Asian,NA,NA,run_02,NA,9.94444444411,#e3dbc8,conscious,be aware of things,yes,1,0,1782,mouse,a mouse,CF131,3.291733333,Tech,CF,f,East Asian,NA,NA,run_02,NA,9.94444444412,#d0d9ae,pride,feel proud,kinda,0.5,0,11685,mouse,a mouse,CF131,3.291733333,Tech,CF,f,East Asian,NA,NA,run_02,NA,9.94444444413,#f2e1bc,pain,feel pain,yes,1,0,3421,mouse,a mouse,CF131,3.291733333,Tech,CF,f,East Asian,NA,NA,run_02,NA,9.94444444414,#cae5a1,odors,smell things,yes,1,0,1846,mouse,a mouse,CF131,3.291733333,Tech,CF,f,East Asian,NA,NA,run_02,NA,9.94444444415,#79e3f9,hungry,get hungry,yes,1,0,1475,mouse,a mouse,CF131,3.291733333,Tech,CF,f,East Asian,NA,NA,run_02,NA,9.94444444416,#97eca5,reasoning,figure out how to do things,yes,1,0,3386,mouse,a mouse,CF131,3.291733333,Tech,CF,f,East Asian,NA,NA,run_02,NA,9.94444444417,#f0d27e,happy,feel happy,yes,1,0,3306,mouse,a mouse,CF131,3.291733333,Tech,CF,f,East Asian,NA,NA,run_02,NA,9.94444444418,#c2e9f5,remembering,remember things,kinda,0.5,0,2990,mouse,a mouse,CF131,3.291733333,Tech,CF,f,East Asian,NA,NA,run_02,NA,9.94444444419,#8cf2c3,choices,make choices,yes,1,0,2224,mouse,a mouse,CF131,3.291733333,Tech,CF,f,East Asian,NA,NA,run_02,NA,9.94444444420,#c3e5b5,depth,sense whether something is close by or far away,yes,1,0,6809,mouse,a mouse,CF131,3.291733333,Tech,CF,f,East Asian,NA,NA,run_02,NA,9.9444444441,#f3c5fa,love,feel love,kinda,0.5,1,5896,bird,a bird,CF132,1.7317,Tech,CF,f,"South or Southeast Asian, Black or African American","""maybe, I<d5>m guessing?""",NA,run_02,NA,8.7638888892,#e3dbc8,disrespected,get hurt feelings,yes,1,2288,4827,bird,a bird,CF132,1.7317,Tech,CF,f,"South or Southeast Asian, Black or African American",,NA,run_02,NA,8.7638888893,#9be4c0,odors,smell things,yes,1,485,2602,bird,a bird,CF132,1.7317,Tech,CF,f,"South or Southeast Asian, Black or African American",,NA,run_02,NA,8.7638888894,#f2e1bc,depth,sense whether something is close by or far away,yes,1,6009,4908,bird,a bird,CF132,1.7317,Tech,CF,f,"South or Southeast Asian, Black or African American",,NA,run_02,NA,8.7638888895,#5ef2da,happy,feel happy,yes,1,0,3789,bird,a bird,CF132,1.7317,Tech,CF,f,"South or Southeast Asian, Black or African American",,NA,run_02,NA,8.7638888896,#d5d0fa,pain,feel pain,yes,1,937,2757,bird,a bird,CF132,1.7317,Tech,CF,f,"South or Southeast Asian, Black or African American",,NA,run_02,NA,8.7638888897,#e3df8e,depressed,feel sad,yes,1,0,1838,bird,a bird,CF132,1.7317,Tech,CF,f,"South or Southeast Asian, Black or African American",,NA,run_02,NA,8.7638888898,#b5eaa1,pride,feel proud,kinda,0.5,342,2788,bird,a bird,CF132,1.7317,Tech,CF,f,"South or Southeast Asian, Black or African American",,NA,run_02,NA,8.7638888899,#97eca5,hungry,get hungry,yes,1,0,2128,bird,a bird,CF132,1.7317,Tech,CF,f,"South or Southeast Asian, Black or African American",,NA,run_02,NA,8.76388888910,#aceab4,embarrassed,feel embarrassed,kinda,0.5,0,1914,bird,a bird,CF132,1.7317,Tech,CF,f,"South or Southeast Asian, Black or African American",,NA,run_02,NA,8.76388888911,#f2cdb9,reasoning,figure out how to do things,yes,1,0,3506,bird,a bird,CF132,1.7317,Tech,CF,f,"South or Southeast Asian, Black or African American",,NA,run_02,NA,8.76388888912,#cae5a1,remembering,remember things,yes,1,0,1546,bird,a bird,CF132,1.7317,Tech,CF,f,"South or Southeast Asian, Black or African American",,NA,run_02,NA,8.76388888913,#a9f2ce,guilt,feel guilty,yes,1,0,1484,bird,a bird,CF132,1.7317,Tech,CF,f,"South or Southeast Asian, Black or African American",,NA,run_02,NA,8.76388888914,#ead1ec,conscious,be aware of things,yes,1,0,2124,bird,a bird,CF132,1.7317,Tech,CF,f,"South or Southeast Asian, Black or African American",,NA,run_02,NA,8.76388888915,#d0e0c8,tired,feel tired,yes,1,0,1399,bird,a bird,CF132,1.7317,Tech,CF,f,"South or Southeast Asian, Black or African American",,NA,run_02,NA,8.76388888916,#a9e7e4,fear,feel scared,yes,1,0,1087,bird,a bird,CF132,1.7317,Tech,CF,f,"South or Southeast Asian, Black or African American",,NA,run_02,NA,8.76388888917,#fde096,nauseated,feel sick -- like when you feel like you might throw up,yes,1,2743,3905,bird,a bird,CF132,1.7317,Tech,CF,f,"South or Southeast Asian, Black or African American",,NA,run_02,NA,8.76388888918,#bfd6fa,temperature,sense temperatures,kinda,0.5,0,2961,bird,a bird,CF132,1.7317,Tech,CF,f,"South or Southeast Asian, Black or African American",,NA,run_02,NA,8.76388888919,#c2e9f5,choices,make choices,yes,1,0,5640,bird,a bird,CF132,1.7317,Tech,CF,f,"South or Southeast Asian, Black or African American",,NA,run_02,NA,8.76388888920,#79e3f9,angry,get angry,yes,1,0,2689,bird,a bird,CF132,1.7317,Tech,CF,f,"South or Southeast Asian, Black or African American",,NA,run_02,NA,8.7638888891,#d5d0fa,nauseated,feel sick -- like when you feel like you might throw up,no,0,0,7804,beetle,a beetle,CF133,3.52135,Tech,CF,m,South or Southeast Asisan,,NA,run_02,NA,7.8055555562,#aceab4,angry,get angry,kinda,0.5,0,8742,beetle,a beetle,CF133,3.521366667,Tech,CF,m,South or Southeast Asisan,,NA,run_02,NA,7.8055555563,#f0d27e,pain,feel pain,no,0,0,8468,beetle,a beetle,CF133,3.521366667,Tech,CF,m,South or Southeast Asisan,,NA,run_02,NA,7.8055555564,#fde096,depth,sense whether something is close by or far away,yes,1,0,6647,beetle,a beetle,CF133,3.521366667,Tech,CF,m,South or Southeast Asisan,,NA,run_02,NA,7.8055555565,#f3c5fa,choices,make choices,no,0,0,5001,beetle,a beetle,CF133,3.521366667,Tech,CF,m,South or Southeast Asisan,,NA,run_02,NA,7.8055555566,#f3d0d9,odors,smell things,yes,1,0,4042,beetle,a beetle,CF133,3.521366667,Tech,CF,m,South or Southeast Asisan,,NA,run_02,NA,7.8055555567,#bae6c8,hungry,get hungry,yes,1,0,4426,beetle,a beetle,CF133,3.521366667,Tech,CF,m,South or Southeast Asisan,,NA,run_02,NA,7.8055555568,#a7dcf9,embarrassed,feel embarrassed,no,0,0,4737,beetle,a beetle,CF133,3.521366667,Tech,CF,m,South or Southeast Asisan,,NA,run_02,NA,7.8055555569,#c2e9f5,happy,feel happy,no,0,0,4465,beetle,a beetle,CF133,3.521366667,Tech,CF,m,South or Southeast Asisan,,NA,run_02,NA,7.80555555610,#bfd6fa,depressed,feel sad,kinda,0.5,0,5089,beetle,a beetle,CF133,3.521366667,Tech,CF,m,South or Southeast Asisan,,NA,run_02,NA,7.80555555611,#fddbd0,remembering,remember things,no,0,0,4578,beetle,a beetle,CF133,3.521366667,Tech,CF,m,South or Southeast Asisan,laughed,NA,run_02,NA,7.80555555612,#94ebda,tired,feel tired,kinda,0.5,0,6458,beetle,a beetle,CF133,3.521366667,Tech,CF,m,South or Southeast Asisan,,NA,run_02,NA,7.80555555613,#e3df8e,temperature,sense temperatures,no,0,0,5628,beetle,a beetle,CF133,3.521366667,Tech,CF,m,South or Southeast Asisan,,NA,run_02,NA,7.80555555614,#dee7bc,love,feel love,no,0,0,4474,beetle,a beetle,CF133,3.521366667,Tech,CF,m,South or Southeast Asisan,,NA,run_02,NA,7.80555555615,#79e3f9,fear,feel scared,no,0,0,6130,beetle,a beetle,CF133,3.521366667,Tech,CF,m,South or Southeast Asisan,,NA,run_02,NA,7.80555555616,#a9e7e4,reasoning,figure out how to do things,yes,1,0,5015,beetle,a beetle,CF133,3.521366667,Tech,CF,m,South or Southeast Asisan,,NA,run_02,NA,7.80555555617,#8cf2c3,disrespected,get hurt feelings,no,0,0,4602,beetle,a beetle,CF133,3.521366667,Tech,CF,m,South or Southeast Asisan,,NA,run_02,NA,7.80555555618,#cae5a1,conscious,be aware of things,yes,1,0,4897,beetle,a beetle,CF133,3.521366667,Tech,CF,m,South or Southeast Asisan,,NA,run_02,NA,7.80555555619,#d0e0c8,pride,feel proud,no,0,0,4649,beetle,a beetle,CF133,3.521366667,Tech,CF,m,South or Southeast Asisan,,NA,run_02,NA,7.80555555620,#c3e5b5,guilt,feel guilty,kinda,0.5,0,4666,beetle,a beetle,CF133,3.521366667,Tech,CF,m,South or Southeast Asisan,,NA,run_02,NA,7.8055555561,#fde096,angry,get angry,yes,1,0,4748,robot,a robot,CF134,3.996316667,Tech,CF,f,Middle Eastern,,NA,run_02,NA,8.2722222222,#3eeaef,fear,feel scared,no,0,0,7761,robot,a robot,CF134,3.996316667,Tech,CF,f,Middle Eastern,,NA,run_02,NA,8.2722222223,#d2dcee,hungry,get hungry,no,0,0,6109,robot,a robot,CF134,3.996316667,Tech,CF,f,Middle Eastern,,NA,run_02,NA,8.2722222224,#fddbd0,disrespected,get hurt feelings,yes,1,0,6266,robot,a robot,CF134,3.996316667,Tech,CF,f,Middle Eastern,,NA,run_02,NA,8.2722222225,#d0d9ae,nauseated,feel sick -- like when you feel like you might throw up,no,0,795,7608,robot,a robot,CF134,3.996316667,Tech,CF,f,Middle Eastern,,NA,run_02,NA,8.2722222226,#bae6c8,pride,feel proud,yes,1,0,5307,robot,a robot,CF134,3.996316667,Tech,CF,f,Middle Eastern,,NA,run_02,NA,8.2722222227,#a7dcf9,happy,feel happy,yes,1,0,3546,robot,a robot,CF134,3.996316667,Tech,CF,f,Middle Eastern,,NA,run_02,NA,8.2722222228,#f2cdb9,odors,smell things,kinda,0.5,0,4992,robot,a robot,CF134,3.996316667,Tech,CF,f,Middle Eastern,,NA,run_02,NA,8.2722222229,#9be4c0,tired,feel tired,kinda,0.5,0,6363,robot,a robot,CF134,3.996316667,Tech,CF,f,Middle Eastern,,NA,run_02,NA,8.27222222210,#e3dbc8,guilt,feel guilty,kinda,0.5,0,4393,robot,a robot,CF134,3.996316667,Tech,CF,f,Middle Eastern,,NA,run_02,NA,8.27222222211,#c3e5b5,choices,make choices,yes,1,0,3961,robot,a robot,CF134,3.996316667,Tech,CF,f,Middle Eastern,,NA,run_02,NA,8.27222222212,#f3d0d9,depth,sense whether something is close by or far away,no,0,0,7504,robot,a robot,CF134,3.996316667,Tech,CF,f,Middle Eastern,,NA,run_02,NA,8.27222222213,#f0d9a2,pain,feel pain,no,0,0,2800,robot,a robot,CF134,3.996316667,Tech,CF,f,Middle Eastern,,NA,run_02,NA,8.27222222214,#cae5a1,conscious,be aware of things,yes,1,0,4080,robot,a robot,CF134,3.996316667,Tech,CF,f,Middle Eastern,,NA,run_02,NA,8.27222222215,#ead1ec,temperature,sense temperatures,kinda,0.5,0,6975,robot,a robot,CF134,3.996316667,Tech,CF,f,Middle Eastern,"""I'm just guessing""",NA,run_02,NA,8.27222222216,#cde8e2,embarrassed,feel embarrassed,kinda,0.5,0,10366,robot,a robot,CF134,3.996316667,Tech,CF,f,Middle Eastern,,NA,run_02,NA,8.27222222217,#a9e7e4,love,feel love,no,0,0,4403,robot,a robot,CF134,3.996316667,Tech,CF,f,Middle Eastern,,NA,run_02,NA,8.27222222218,#d0e0c8,reasoning,figure out how to do things,yes,1,3109,5250,robot,a robot,CF134,3.996316667,Tech,CF,f,Middle Eastern,,NA,run_02,NA,8.27222222219,#e3df8e,remembering,remember things,yes,1,0,4208,robot,a robot,CF134,3.996316667,Tech,CF,f,Middle Eastern,,NA,run_02,NA,8.27222222220,#c2e9f5,depressed,feel sad,yes,1,0,3751,robot,a robot,CF134,3.996316667,Tech,CF,f,Middle Eastern,,NA,run_02,NA,8.2722222221,#9be4c0,hungry,get hungry,yes,1,6388,8130,goat,a goat,CF135,2.385183333,Tech,CF,m,Hispanic or Latino/a,NA,NA,run_02,NA,7.9083333332,#d5d0fa,reasoning,figure out how to do things,no,0,0,7002,goat,a goat,CF135,2.385183333,Tech,CF,m,Hispanic or Latino/a,NA,NA,run_02,NA,7.9083333333,#ead1ec,depressed,feel sad,kinda,0.5,0,4604,goat,a goat,CF135,2.385183333,Tech,CF,m,Hispanic or Latino/a,NA,NA,run_02,NA,7.9083333334,#f2cdb9,pride,feel proud,yes,1,0,5360,goat,a goat,CF135,2.385183333,Tech,CF,m,Hispanic or Latino/a,NA,NA,run_02,NA,7.9083333335,#c2e9f5,guilt,feel guilty,kinda,0.5,0,4108,goat,a goat,CF135,2.385183333,Tech,CF,m,Hispanic or Latino/a,NA,NA,run_02,NA,7.9083333336,#bce98d,temperature,sense temperatures,no,0,0,5457,goat,a goat,CF135,2.385183333,Tech,CF,m,Hispanic or Latino/a,NA,NA,run_02,NA,7.9083333337,#a7dcf9,remembering,remember things,no,0,0,3818,goat,a goat,CF135,2.385183333,Tech,CF,m,Hispanic or Latino/a,NA,NA,run_02,NA,7.9083333338,#dedfa2,choices,make choices,no,0,0,5735,goat,a goat,CF135,2.385183333,Tech,CF,m,Hispanic or Latino/a,NA,NA,run_02,NA,7.9083333339,#e3df8e,disrespected,get hurt feelings,yes,1,0,4178,goat,a goat,CF135,2.385183333,Tech,CF,m,Hispanic or Latino/a,NA,NA,run_02,NA,7.90833333310,#d2dcee,fear,feel scared,yes,1,0,2966,goat,a goat,CF135,2.385183333,Tech,CF,m,Hispanic or Latino/a,NA,NA,run_02,NA,7.90833333311,#79e3f9,nauseated,feel sick -- like when you feel like you might throw up,yes,1,0,4956,goat,a goat,CF135,2.385183333,Tech,CF,m,Hispanic or Latino/a,NA,NA,run_02,NA,7.90833333312,#cae5a1,depth,sense whether something is close by or far away,no,0,0,6393,goat,a goat,CF135,2.385183333,Tech,CF,m,Hispanic or Latino/a,NA,NA,run_02,NA,7.90833333313,#d0d9ae,embarrassed,feel embarrassed,no,0,0,6258,goat,a goat,CF135,2.385183333,Tech,CF,m,Hispanic or Latino/a,NA,NA,run_02,NA,7.90833333314,#3eeaef,love,feel love,yes,1,0,4952,goat,a goat,CF135,2.385183333,Tech,CF,m,Hispanic or Latino/a,NA,NA,run_02,NA,7.90833333315,#64f8f4,happy,feel happy,yes,1,0,3377,goat,a goat,CF135,2.385183333,Tech,CF,m,Hispanic or Latino/a,NA,NA,run_02,NA,7.90833333316,#b4dbe7,conscious,be aware of things,kinda,0.5,0,4955,goat,a goat,CF135,2.385183333,Tech,CF,m,Hispanic or Latino/a,NA,NA,run_02,NA,7.90833333317,#f3c5fa,angry,get angry,yes,1,0,4146,goat,a goat,CF135,2.385183333,Tech,CF,m,Hispanic or Latino/a,NA,NA,run_02,NA,7.90833333318,#bfd6fa,pain,feel pain,yes,1,0,4621,goat,a goat,CF135,2.385183333,Tech,CF,m,Hispanic or Latino/a,NA,NA,run_02,NA,7.90833333319,#dee7bc,odors,smell things,yes,1,0,3244,goat,a goat,CF135,2.385183333,Tech,CF,m,Hispanic or Latino/a,NA,NA,run_02,NA,7.90833333320,#d1e48e,tired,feel tired,no,0,0,3333,goat,a goat,CF135,2.385183333,Tech,CF,m,Hispanic or Latino/a,NA,NA,run_02,NA,7.9083333331,#cae5a1,odors,smell things,yes,1,0,5605,bird,a bird,CF136,2.491916667,Tech,CF,m,"Black or African American, Hispanic or Latino/a",,NA,run_02,NA,7.8055555562,#d5d0fa,depressed,feel sad,no,0,0,4963,bird,a bird,CF136,2.491916667,Tech,CF,m,"Black or African American, Hispanic or Latino/a",,NA,run_02,NA,7.8055555563,#5ef2da,disrespected,get hurt feelings,no,0,0,4677,bird,a bird,CF136,2.491916667,Tech,CF,m,"Black or African American, Hispanic or Latino/a",,NA,run_02,NA,7.8055555564,#cde8e2,depth,sense whether something is close by or far away,no,0,0,7577,bird,a bird,CF136,2.491916667,Tech,CF,m,"Black or African American, Hispanic or Latino/a",,NA,run_02,NA,7.8055555565,#e3d3af,pain,feel pain,yes,1,0,4930,bird,a bird,CF136,2.491916667,Tech,CF,m,"Black or African American, Hispanic or Latino/a",,NA,run_02,NA,7.8055555566,#e3dbc8,pride,feel proud,no,0,0,4240,bird,a bird,CF136,2.491916667,Tech,CF,m,"Black or African American, Hispanic or Latino/a",,NA,run_02,NA,7.8055555567,#97eca5,choices,make choices,no,0,0,6001,bird,a bird,CF136,2.491916667,Tech,CF,m,"Black or African American, Hispanic or Latino/a",,NA,run_02,NA,7.8055555568,#d0e0c8,remembering,remember things,yes,1,0,3366,bird,a bird,CF136,2.491916667,Tech,CF,m,"Black or African American, Hispanic or Latino/a",,NA,run_02,NA,7.8055555569,#3eeaef,love,feel love,no,0,0,4740,bird,a bird,CF136,2.491916667,Tech,CF,m,"Black or African American, Hispanic or Latino/a",,NA,run_02,NA,7.80555555610,#84eced,reasoning,figure out how to do things,no,0,0,5928,bird,a bird,CF136,2.491916667,Tech,CF,m,"Black or African American, Hispanic or Latino/a",,NA,run_02,NA,7.80555555611,#d1e48e,conscious,be aware of things,yes,1,0,4781,bird,a bird,CF136,2.491916667,Tech,CF,m,"Black or African American, Hispanic or Latino/a","after going to next question, asked if ""aware"" meant scared but didn't change answer when I told him definition",NA,run_02,NA,7.80555555612,#94ebda,hungry,get hungry,yes,1,0,10819,bird,a bird,CF136,2.491916667,Tech,CF,m,"Black or African American, Hispanic or Latino/a",,NA,run_02,NA,7.80555555613,#a9e7e4,embarrassed,feel embarrassed,no,0,0,4450,bird,a bird,CF136,2.491916667,Tech,CF,m,"Black or African American, Hispanic or Latino/a",,NA,run_02,NA,7.80555555614,#8cf2c3,temperature,sense temperatures,no,0,0,6368,bird,a bird,CF136,2.491916667,Tech,CF,m,"Black or African American, Hispanic or Latino/a",,NA,run_02,NA,7.80555555615,#fde096,fear,feel scared,yes,1,0,4177,bird,a bird,CF136,2.491916667,Tech,CF,m,"Black or African American, Hispanic or Latino/a",,NA,run_02,NA,7.80555555616,#bae6c8,angry,get angry,yes,1,0,3722,bird,a bird,CF136,2.491916667,Tech,CF,m,"Black or African American, Hispanic or Latino/a",,NA,run_02,NA,7.80555555617,#79e3f9,tired,feel tired,no,0,0,4905,bird,a bird,CF136,2.491916667,Tech,CF,m,"Black or African American, Hispanic or Latino/a",,NA,run_02,NA,7.80555555618,#f3d0d9,happy,feel happy,no,0,0,2719,bird,a bird,CF136,2.491916667,Tech,CF,m,"Black or African American, Hispanic or Latino/a",,NA,run_02,NA,7.80555555619,#e3df8e,nauseated,feel sick -- like when you feel like you might throw up,no,0,0,6300,bird,a bird,CF136,2.491916667,Tech,CF,m,"Black or African American, Hispanic or Latino/a",,NA,run_02,NA,7.80555555620,#c3e5b5,guilt,feel guilty,no,0,0,4683,bird,a bird,CF136,2.491916667,Tech,CF,m,"Black or African American, Hispanic or Latino/a",,NA,run_02,NA,7.8055555561,#d5d0fa,pain,feel pain,kinda,0.5,0,7144,goat,a goat,CF71,3.311716667,Tech,CF,f,White,,NA,run_02,NA,7.9388888892,#f0d27e,nauseated,feel sick -- like when you feel like you might throw up,yes,1,0,11782,goat,a goat,CF71,3.311716667,Tech,CF,f,White,,NA,run_02,NA,7.9388888893,#94ebda,reasoning,figure out how to do things,yes,1,0,5767,goat,a goat,CF71,3.311733333,Tech,CF,f,White,,NA,run_02,NA,7.9388888894,#a9e7e4,embarrassed,feel embarrassed,no,0,0,4462,goat,a goat,CF71,3.311733333,Tech,CF,f,White,,NA,run_02,NA,7.9388888895,#d1e48e,tired,feel tired,yes,1,0,4241,goat,a goat,CF71,3.311733333,Tech,CF,f,White,,NA,run_02,NA,7.9388888896,#a9f2ce,fear,feel scared,yes,1,0,1422,goat,a goat,CF71,3.311733333,Tech,CF,f,White,,NA,run_02,NA,7.9388888897,#f0d9a2,happy,feel happy,yes,1,0,1894,goat,a goat,CF71,3.311733333,Tech,CF,f,White,,NA,run_02,NA,7.9388888898,#f2cdb9,odors,smell things,yes,1,0,3299,goat,a goat,CF71,3.311733333,Tech,CF,f,White,,NA,run_02,NA,7.938888889