trialNum,bgColor,capacity,capWording,response,responseNum,hoverTime,rt,character,charWording,subid,sessionDuration,testingSite,experimenter,gender,ethnicity,trialComments,sessionComments,run,trial.comments,age1,#b4dbe7,remembering,remember things,no,0,0,15321,goat,a goat,CX55_3Y,2.84905,Bing,CX,f,ME A/C,NA,NA,run_03,NA,3.1567419582,#97eca5,depth,sense whether something is close by or far away,yes,1,0,9093,goat,a goat,CX55_3Y,2.849066667,Bing,CX,f,ME A/C,NA,NA,run_03,NA,3.1567419583,#e3d3af,pain,feel pain,yes,1,0,6495,goat,a goat,CX55_3Y,2.849066667,Bing,CX,f,ME A/C,NA,NA,run_03,NA,3.1567419584,#a9f2ce,tired,feel tired,yes,1,0,5425,goat,a goat,CX55_3Y,2.849066667,Bing,CX,f,ME A/C,NA,NA,run_03,NA,3.1567419585,#94ebda,depressed,feel sad,yes,1,0,5923,goat,a goat,CX55_3Y,2.849066667,Bing,CX,f,ME A/C,NA,NA,run_03,NA,3.1567419586,#3eeaef,embarrassed,feel embarrassed,no,0,0,6022,goat,a goat,CX55_3Y,2.849066667,Bing,CX,f,ME A/C,NA,NA,run_03,NA,3.1567419587,#79e3f9,happy,feel happy,yes,1,0,4883,goat,a goat,CX55_3Y,2.849066667,Bing,CX,f,ME A/C,NA,NA,run_03,NA,3.1567419588,#84eced,hungry,get hungry,yes,1,0,5973,goat,a goat,CX55_3Y,2.849066667,Bing,CX,f,ME A/C,NA,NA,run_03,NA,3.1567419589,#aceab4,temperature,sense temperatures,yes,1,0,5460,goat,a goat,CX55_3Y,2.849066667,Bing,CX,f,ME A/C,NA,NA,run_03,NA,3.15674195810,#b5eaa1,odors,smell things,yes,1,0,6151,goat,a goat,CX55_3Y,2.849066667,Bing,CX,f,ME A/C,NA,NA,run_03,NA,3.15674195811,#f2e1bc,love,feel love,no,0,0,6620,goat,a goat,CX55_3Y,2.849066667,Bing,CX,f,ME A/C,NA,NA,run_03,NA,3.15674195812,#c3e5b5,conscious,be aware of things,yes,1,0,5099,goat,a goat,CX55_3Y,2.849066667,Bing,CX,f,ME A/C,NA,NA,run_03,NA,3.15674195813,#f2cdb9,reasoning,figure out how to do things,yes,1,0,5639,goat,a goat,CX55_3Y,2.849066667,Bing,CX,f,ME A/C,NA,NA,run_03,NA,3.15674195814,#bae6c8,disrespected,get hurt feelings,no,0,0,5623,goat,a goat,CX55_3Y,2.849066667,Bing,CX,f,ME A/C,NA,NA,run_03,NA,3.15674195815,#ead1ec,choices,make choices,yes,1,0,5009,goat,a goat,CX55_3Y,2.849066667,Bing,CX,f,ME A/C,NA,NA,run_03,NA,3.15674195816,#8cf2c3,nauseated,feel sick -- like when you feel like you might throw up,no,0,0,6894,goat,a goat,CX55_3Y,2.849066667,Bing,CX,f,ME A/C,NA,NA,run_03,NA,3.15674195817,#a9e7e4,fear,feel scared,no,0,0,6952,goat,a goat,CX55_3Y,2.849066667,Bing,CX,f,ME A/C,NA,NA,run_03,NA,3.15674195818,#f0d9a2,pride,feel proud,yes,1,0,5239,goat,a goat,CX55_3Y,2.849066667,Bing,CX,f,ME A/C,NA,NA,run_03,NA,3.15674195819,#d1e48e,angry,get angry,no,0,0,5641,goat,a goat,CX55_3Y,2.849066667,Bing,CX,f,ME A/C,NA,NA,run_03,NA,3.15674195820,#fde096,guilt,feel guilty,yes,1,0,4797,goat,a goat,CX55_3Y,2.849066667,Bing,CX,f,ME A/C,NA,NA,run_03,NA,3.15674195821,#d0e0c8,metal,is made out of metal,yes,1,0,5511,goat,a goat,CX55_3Y,2.849066667,Bing,CX,f,ME A/C,NA,NA,run_03,NA,3.15674195822,#cae5a1,on_off,can be turned on and off,yes,1,0,5988,goat,a goat,CX55_3Y,2.849066667,Bing,CX,f,ME A/C,NA,NA,run_03,NA,3.1567419581,#ead1ec,pain,feel pain,no,0,0,13697,elephant,a elephant,CX54_3Y,2.77485,Bing,CX,m,HC Cj,NA,NA,run_03,NA,3.5236139632,#b5eaa1,angry,get angry,yes,1,0,5736,elephant,a elephant,CX54_3Y,2.77485,Bing,CX,m,HC Cj,NA,NA,run_03,NA,3.5236139633,#94ebda,odors,smell things,yes,1,0,7520,elephant,a elephant,CX54_3Y,2.77485,Bing,CX,m,HC Cj,NA,NA,run_03,NA,3.5236139634,#f2e1bc,tired,feel tired,yes,1,0,5256,elephant,a elephant,CX54_3Y,2.77485,Bing,CX,m,HC Cj,NA,NA,run_03,NA,3.5236139635,#bae6c8,temperature,sense temperatures,yes,1,0,4924,elephant,a elephant,CX54_3Y,2.77485,Bing,CX,m,HC Cj,NA,NA,run_03,NA,3.5236139636,#b4dbe7,conscious,be aware of things,yes,1,0,5442,elephant,a elephant,CX54_3Y,2.77485,Bing,CX,m,HC Cj,NA,NA,run_03,NA,3.5236139637,#c2e9f5,remembering,remember things,yes,1,0,4920,elephant,a elephant,CX54_3Y,2.77485,Bing,CX,m,HC Cj,NA,NA,run_03,NA,3.5236139638,#8cf2c3,choices,make choices,yes,1,0,5215,elephant,a elephant,CX54_3Y,2.77485,Bing,CX,m,HC Cj,NA,NA,run_03,NA,3.5236139639,#5ef2da,reasoning,figure out how to do things,yes,1,0,5158,elephant,a elephant,CX54_3Y,2.77485,Bing,CX,m,HC Cj,NA,NA,run_03,NA,3.52361396310,#d1e48e,fear,feel scared,yes,1,0,5315,elephant,a elephant,CX54_3Y,2.77485,Bing,CX,m,HC Cj,NA,NA,run_03,NA,3.52361396311,#d5d0fa,disrespected,get hurt feelings,yes,1,0,5292,elephant,a elephant,CX54_3Y,2.77485,Bing,CX,m,HC Cj,NA,NA,run_03,NA,3.52361396312,#bfd6fa,love,feel love,yes,1,0,8212,elephant,a elephant,CX54_3Y,2.77485,Bing,CX,m,HC Cj,NA,NA,run_03,NA,3.52361396313,#dee7bc,depressed,feel sad,yes,1,0,6034,elephant,a elephant,CX54_3Y,2.77485,Bing,CX,m,HC Cj,NA,NA,run_03,NA,3.52361396314,#f0d9a2,nauseated,feel sick -- like when you feel like you might throw up,yes,1,0,6891,elephant,a elephant,CX54_3Y,2.77485,Bing,CX,m,HC Cj,NA,NA,run_03,NA,3.52361396315,#f2cdb9,guilt,feel guilty,yes,1,0,5163,elephant,a elephant,CX54_3Y,2.77485,Bing,CX,m,HC Cj,NA,NA,run_03,NA,3.52361396316,#64f8f4,hungry,get hungry,yes,1,0,5440,elephant,a elephant,CX54_3Y,2.77485,Bing,CX,m,HC Cj,NA,NA,run_03,NA,3.52361396317,#a9f2ce,depth,sense whether something is close by or far away,yes,1,0,6721,elephant,a elephant,CX54_3Y,2.77485,Bing,CX,m,HC Cj,NA,NA,run_03,NA,3.52361396318,#d2dcee,happy,feel happy,yes,1,0,4285,elephant,a elephant,CX54_3Y,2.77485,Bing,CX,m,HC Cj,NA,NA,run_03,NA,3.52361396319,#a9e7e4,embarrassed,feel embarrassed,yes,1,0,4836,elephant,a elephant,CX54_3Y,2.77485,Bing,CX,m,HC Cj,NA,NA,run_03,NA,3.52361396320,#d0d9ae,pride,feel proud,yes,1,0,4604,elephant,a elephant,CX54_3Y,2.77485,Bing,CX,m,HC Cj,NA,NA,run_03,NA,3.52361396321,#cae5a1,metal,is made out of metal,yes,1,0,5585,elephant,a elephant,CX54_3Y,2.77485,Bing,CX,m,HC Cj,NA,NA,run_03,NA,3.52361396322,#e3dbc8,on_off,can be turned on and off,yes,1,0,5514,elephant,a elephant,CX54_3Y,2.77485,Bing,CX,m,HC Cj,NA,NA,run_03,NA,3.5236139631,#f0d9a2,pride,feel proud,yes,1,0,6861,doll,a doll,O46,2.612816667,JMZ,OSH,m,South or Southeast Asian,,usually nodded or shook head instead of vocalizing,run_03,NA,3.5268346112,#bae6c8,angry,get angry,no,0,0,5029,doll,a doll,O46,2.612833333,JMZ,OSH,m,South or Southeast Asian,,usually nodded or shook head instead of vocalizing,run_03,NA,3.5268346113,#5ef2da,depressed,feel sad,yes,1,0,4995,doll,a doll,O46,2.612833333,JMZ,OSH,m,South or Southeast Asian,,usually nodded or shook head instead of vocalizing,run_03,NA,3.5268346114,#f2e1bc,depth,sense whether something is close by or far away,no,0,0,7356,doll,a doll,O46,2.612833333,JMZ,OSH,m,South or Southeast Asian,,usually nodded or shook head instead of vocalizing,run_03,NA,3.5268346115,#64f8f4,pain,feel pain,no,0,0,4740,doll,a doll,O46,2.612833333,JMZ,OSH,m,South or Southeast Asian,,usually nodded or shook head instead of vocalizing,run_03,NA,3.5268346116,#a9e7e4,disrespected,get hurt feelings,no,0,0,10930,doll,a doll,O46,2.612833333,JMZ,OSH,m,South or Southeast Asian,,usually nodded or shook head instead of vocalizing,run_03,NA,3.5268346117,#cae5a1,love,feel love,yes,1,0,5293,doll,a doll,O46,2.612833333,JMZ,OSH,m,South or Southeast Asian,,usually nodded or shook head instead of vocalizing,run_03,NA,3.5268346118,#f3d0d9,reasoning,figure out how to do things,yes,1,0,5585,doll,a doll,O46,2.612833333,JMZ,OSH,m,South or Southeast Asian,,usually nodded or shook head instead of vocalizing,run_03,NA,3.5268346119,#c3e5b5,choices,make choices,no,0,0,4995,doll,a doll,O46,2.612833333,JMZ,OSH,m,South or Southeast Asian,,usually nodded or shook head instead of vocalizing,run_03,NA,3.52683461110,#fde096,fear,feel scared,yes,1,0,5116,doll,a doll,O46,2.612833333,JMZ,OSH,m,South or Southeast Asian,,usually nodded or shook head instead of vocalizing,run_03,NA,3.52683461111,#c2e9f5,hungry,get hungry,yes,1,0,5767,doll,a doll,O46,2.612833333,JMZ,OSH,m,South or Southeast Asian,,usually nodded or shook head instead of vocalizing,run_03,NA,3.52683461112,#f0d27e,conscious,be aware of things,yes,1,0,5510,doll,a doll,O46,2.612833333,JMZ,OSH,m,South or Southeast Asian,,usually nodded or shook head instead of vocalizing,run_03,NA,3.52683461113,#97eca5,nauseated,feel sick -- like when you feel like you might throw up,yes,1,0,14479,doll,a doll,O46,2.612833333,JMZ,OSH,m,South or Southeast Asian,I just did,usually nodded or shook head instead of vocalizing,run_03,NA,3.52683461114,#84eced,odors,smell things,yes,1,0,7612,doll,a doll,O46,2.612833333,JMZ,OSH,m,South or Southeast Asian,,usually nodded or shook head instead of vocalizing,run_03,NA,3.52683461115,#aceab4,embarrassed,feel embarrassed,no,0,0,6176,doll,a doll,O46,2.612833333,JMZ,OSH,m,South or Southeast Asian,,usually nodded or shook head instead of vocalizing,run_03,NA,3.52683461116,#3eeaef,temperature,sense temperatures,yes,1,0,5222,doll,a doll,O46,2.612833333,JMZ,OSH,m,South or Southeast Asian,,usually nodded or shook head instead of vocalizing,run_03,NA,3.52683461117,#d1e48e,tired,feel tired,yes,1,0,4843,doll,a doll,O46,2.612833333,JMZ,OSH,m,South or Southeast Asian,,usually nodded or shook head instead of vocalizing,run_03,NA,3.52683461118,#e3d3af,guilt,feel guilty,yes,1,0,5464,doll,a doll,O46,2.612833333,JMZ,OSH,m,South or Southeast Asian,,usually nodded or shook head instead of vocalizing,run_03,NA,3.52683461119,#d0d9ae,remembering,remember things,no,0,0,5279,doll,a doll,O46,2.612833333,JMZ,OSH,m,South or Southeast Asian,,usually nodded or shook head instead of vocalizing,run_03,NA,3.52683461120,#e3df8e,happy,feel happy,no,0,0,7433,doll,a doll,O46,2.612833333,JMZ,OSH,m,South or Southeast Asian,,usually nodded or shook head instead of vocalizing,run_03,NA,3.5268346111,#f2cdb9,disrespected,get hurt feelings,no,0,0,6989,bird,a bird,O47,3.230916667,JMZ,OSH,m,South or Southeast Asian,NA,Usually nodded or shook head instead of vocalizing; seemed distracted,run_03,NA,3.5268346112,#f3d0d9,depth,sense whether something is close by or far away,yes,1,0,8295,bird,a bird,O47,3.230916667,JMZ,OSH,m,South or Southeast Asian,NA,Usually nodded or shook head instead of vocalizing; seemed distracted,run_03,NA,3.5268346113,#fdcc93,tired,feel tired,no,0,0,6187,bird,a bird,O47,3.230916667,JMZ,OSH,m,South or Southeast Asian,NA,Usually nodded or shook head instead of vocalizing; seemed distracted,run_03,NA,3.5268346114,#a9e7e4,nauseated,feel sick -- like when you feel like you might throw up,no,0,0,6474,bird,a bird,O47,3.230933333,JMZ,OSH,m,South or Southeast Asian,NA,Usually nodded or shook head instead of vocalizing; seemed distracted,run_03,NA,3.5268346115,#bce98d,pain,feel pain,no,0,0,6912,bird,a bird,O47,3.230933333,JMZ,OSH,m,South or Southeast Asian,NA,Usually nodded or shook head instead of vocalizing; seemed distracted,run_03,NA,3.5268346116,#5ef2da,embarrassed,feel embarrassed,no,0,0,6171,bird,a bird,O47,3.230933333,JMZ,OSH,m,South or Southeast Asian,NA,Usually nodded or shook head instead of vocalizing; seemed distracted,run_03,NA,3.5268346117,#a7dcf9,odors,smell things,no,0,0,5753,bird,a bird,O47,3.230933333,JMZ,OSH,m,South or Southeast Asian,NA,Usually nodded or shook head instead of vocalizing; seemed distracted,run_03,NA,3.5268346118,#ead1ec,hungry,get hungry,no,0,0,6379,bird,a bird,O47,3.230933333,JMZ,OSH,m,South or Southeast Asian,NA,Usually nodded or shook head instead of vocalizing; seemed distracted,run_03,NA,3.5268346119,#97eca5,conscious,be aware of things,yes,1,0,6139,bird,a bird,O47,3.230933333,JMZ,OSH,m,South or Southeast Asian,NA,Usually nodded or shook head instead of vocalizing; seemed distracted,run_03,NA,3.52683461110,#e3df8e,depressed,feel sad,yes,1,0,5778,bird,a bird,O47,3.230933333,JMZ,OSH,m,South or Southeast Asian,NA,Usually nodded or shook head instead of vocalizing; seemed distracted,run_03,NA,3.52683461111,#d1e48e,temperature,sense temperatures,no,0,9461,18109,bird,a bird,O47,3.230933333,JMZ,OSH,m,South or Southeast Asian,NA,Usually nodded or shook head instead of vocalizing; seemed distracted,run_03,NA,3.52683461112,#d2dcee,angry,get angry,yes,1,0,13647,bird,a bird,O47,3.230933333,JMZ,OSH,m,South or Southeast Asian,NA,Usually nodded or shook head instead of vocalizing; seemed distracted,run_03,NA,3.52683461113,#fddbd0,happy,feel happy,yes,1,0,11337,bird,a bird,O47,3.230933333,JMZ,OSH,m,South or Southeast Asian,NA,Usually nodded or shook head instead of vocalizing; seemed distracted,run_03,NA,3.52683461114,#d0d9ae,reasoning,figure out how to do things,yes,1,0,7883,bird,a bird,O47,3.230933333,JMZ,OSH,m,South or Southeast Asian,NA,Usually nodded or shook head instead of vocalizing; seemed distracted,run_03,NA,3.52683461115,#c3e5b5,guilt,feel guilty,no,0,0,6267,bird,a bird,O47,3.230933333,JMZ,OSH,m,South or Southeast Asian,NA,Usually nodded or shook head instead of vocalizing; seemed distracted,run_03,NA,3.52683461116,#79e3f9,pride,feel proud,yes,1,7358,16502,bird,a bird,O47,3.230933333,JMZ,OSH,m,South or Southeast Asian,NA,Usually nodded or shook head instead of vocalizing; seemed distracted,run_03,NA,3.52683461117,#cae5a1,remembering,remember things,yes,1,0,5120,bird,a bird,O47,3.230933333,JMZ,OSH,m,South or Southeast Asian,NA,Usually nodded or shook head instead of vocalizing; seemed distracted,run_03,NA,3.52683461118,#dee7bc,fear,feel scared,yes,1,0,11554,bird,a bird,O47,3.230933333,JMZ,OSH,m,South or Southeast Asian,NA,Usually nodded or shook head instead of vocalizing; seemed distracted,run_03,NA,3.52683461119,#dedfa2,love,feel love,yes,1,0,5092,bird,a bird,O47,3.230933333,JMZ,OSH,m,South or Southeast Asian,NA,Usually nodded or shook head instead of vocalizing; seemed distracted,run_03,NA,3.52683461120,#cde8e2,choices,make choices,yes,1,0,4564,bird,a bird,O47,3.230933333,JMZ,OSH,m,South or Southeast Asian,NA,Usually nodded or shook head instead of vocalizing; seemed distracted,run_03,NA,3.5268346111,#bce98d,love,feel love,no,0,0,13746,teddy_bear,a teddy bear,CX51_3Y,2.7798,Bing,CX,m,H,NA,3 yr old pilot,run_03,NA,3.7814895952,#a9e7e4,odors,smell things,yes,1,0,5589,teddy_bear,a teddy bear,CX51_3Y,2.7798,Bing,CX,m,H,NA,3 yr old pilot,run_03,NA,3.7814895953,#fdcc93,embarrassed,feel embarrassed,yes,1,0,5466,teddy_bear,a teddy bear,CX51_3Y,2.7798,Bing,CX,m,H,NA,3 yr old pilot,run_03,NA,3.7814895954,#dedfa2,pain,feel pain,yes,1,0,5653,teddy_bear,a teddy bear,CX51_3Y,2.7798,Bing,CX,m,H,NA,3 yr old pilot,run_03,NA,3.7814895955,#aceab4,angry,get angry,yes,1,0,4986,teddy_bear,a teddy bear,CX51_3Y,2.7798,Bing,CX,m,H,NA,3 yr old pilot,run_03,NA,3.7814895956,#ead1ec,happy,feel happy,no,0,0,18945,teddy_bear,a teddy bear,CX51_3Y,2.7798,Bing,CX,m,H,NA,3 yr old pilot,run_03,NA,3.7814895957,#f2e1bc,pride,feel proud,no,0,0,5358,teddy_bear,a teddy bear,CX51_3Y,2.7798,Bing,CX,m,H,NA,3 yr old pilot,run_03,NA,3.7814895958,#3eeaef,choices,make choices,no,0,0,4437,teddy_bear,a teddy bear,CX51_3Y,2.7798,Bing,CX,m,H,NA,3 yr old pilot,run_03,NA,3.7814895959,#a7dcf9,depth,sense whether something is close by or far away,yes,1,0,7667,teddy_bear,a teddy bear,CX51_3Y,2.7798,Bing,CX,m,H,NA,3 yr old pilot,run_03,NA,3.78148959510,#d5d0fa,reasoning,figure out how to do things,yes,1,0,6823,teddy_bear,a teddy bear,CX51_3Y,2.7798,Bing,CX,m,H,NA,3 yr old pilot,run_03,NA,3.78148959511,#c2e9f5,guilt,feel guilty,yes,1,0,5628,teddy_bear,a teddy bear,CX51_3Y,2.7798,Bing,CX,m,H,NA,3 yr old pilot,run_03,NA,3.78148959512,#d1e48e,depressed,feel sad,yes,1,0,5012,teddy_bear,a teddy bear,CX51_3Y,2.7798,Bing,CX,m,H,NA,3 yr old pilot,run_03,NA,3.78148959513,#d0d9ae,fear,feel scared,yes,1,0,4519,teddy_bear,a teddy bear,CX51_3Y,2.7798,Bing,CX,m,H,NA,3 yr old pilot,run_03,NA,3.78148959514,#f3d0d9,hungry,get hungry,yes,1,0,4908,teddy_bear,a teddy bear,CX51_3Y,2.7798,Bing,CX,m,H,NA,3 yr old pilot,run_03,NA,3.78148959515,#cde8e2,conscious,be aware of things,yes,1,0,5021,teddy_bear,a teddy bear,CX51_3Y,2.7798,Bing,CX,m,H,NA,3 yr old pilot,run_03,NA,3.78148959516,#fde096,remembering,remember things,yes,1,17,4573,teddy_bear,a teddy bear,CX51_3Y,2.7798,Bing,CX,m,H,NA,3 yr old pilot,run_03,NA,3.78148959517,#e3dbc8,nauseated,feel sick -- like when you feel like you might throw up,yes,1,0,6518,teddy_bear,a teddy bear,CX51_3Y,2.7798,Bing,CX,m,H,NA,3 yr old pilot,run_03,NA,3.78148959518,#d0e0c8,temperature,sense temperatures,yes,1,0,5044,teddy_bear,a teddy bear,CX51_3Y,2.7798,Bing,CX,m,H,NA,3 yr old pilot,run_03,NA,3.78148959519,#9be4c0,disrespected,get hurt feelings,yes,1,0,4625,teddy_bear,a teddy bear,CX51_3Y,2.7798,Bing,CX,m,H,NA,3 yr old pilot,run_03,NA,3.78148959520,#79e3f9,tired,feel tired,yes,1,0,4456,teddy_bear,a teddy bear,CX51_3Y,2.7798,Bing,CX,m,H,NA,3 yr old pilot,run_03,NA,3.78148959521,#f0d27e,metal,is made out of metal,yes,1,0,5169,teddy_bear,a teddy bear,CX51_3Y,2.7798,Bing,CX,m,H,NA,3 yr old pilot,run_03,NA,3.78148959522,#94ebda,on_off,can be turned on and off,yes,1,0,5418,teddy_bear,a teddy bear,CX51_3Y,2.7798,Bing,CX,m,H,NA,3 yr old pilot,run_03,NA,3.7814895951,#cde8e2,disrespected,get hurt feelings,no,0,0,9577,robot,a robot,LDB52,2.617433333,tech,ldb,m,South or Southeast Asian,NA,**not yet 4 years old,run_03,NA,3.8882803942,#a9f2ce,fear,feel scared,no,0,0,5475,robot,a robot,LDB52,2.617433333,tech,ldb,m,South or Southeast Asian,NA,**not yet 4 years old,run_03,NA,3.8882803943,#f0d9a2,angry,get angry,no,0,0,5831,robot,a robot,LDB52,2.61745,tech,ldb,m,South or Southeast Asian,NA,**not yet 4 years old,run_03,NA,3.8882803944,#d5d0fa,embarrassed,feel embarrassed,no,0,0,6194,robot,a robot,LDB52,2.61745,tech,ldb,m,South or Southeast Asian,NA,**not yet 4 years old,run_03,NA,3.8882803945,#bfd6fa,nauseated,feel sick -- like when you feel like you might throw up,no,0,0,8668,robot,a robot,LDB52,2.61745,tech,ldb,m,South or Southeast Asian,NA,**not yet 4 years old,run_03,NA,3.8882803946,#e3df8e,pain,feel pain,yes,1,0,6675,robot,a robot,LDB52,2.61745,tech,ldb,m,South or Southeast Asian,NA,**not yet 4 years old,run_03,NA,3.8882803947,#f2e1bc,pride,feel proud,no,0,0,5377,robot,a robot,LDB52,2.61745,tech,ldb,m,South or Southeast Asian,NA,**not yet 4 years old,run_03,NA,3.8882803948,#d2dcee,conscious,be aware of things,yes,1,0,7444,robot,a robot,LDB52,2.61745,tech,ldb,m,South or Southeast Asian,NA,**not yet 4 years old,run_03,NA,3.8882803949,#d0e0c8,tired,feel tired,kinda,0.5,0,7033,robot,a robot,LDB52,2.61745,tech,ldb,m,South or Southeast Asian,NA,**not yet 4 years old,run_03,NA,3.88828039410,#5ef2da,hungry,get hungry,no,0,0,5900,robot,a robot,LDB52,2.61745,tech,ldb,m,South or Southeast Asian,NA,**not yet 4 years old,run_03,NA,3.88828039411,#8cf2c3,reasoning,figure out how to do things,yes,1,0,6188,robot,a robot,LDB52,2.61745,tech,ldb,m,South or Southeast Asian,NA,**not yet 4 years old,run_03,NA,3.88828039412,#fddbd0,love,feel love,no,0,0,4797,robot,a robot,LDB52,2.61745,tech,ldb,m,South or Southeast Asian,NA,**not yet 4 years old,run_03,NA,3.88828039413,#bce98d,depth,sense whether something is close by or far away,yes,1,0,9437,robot,a robot,LDB52,2.61745,tech,ldb,m,South or Southeast Asian,NA,**not yet 4 years old,run_03,NA,3.88828039414,#fdcc93,remembering,remember things,no,0,0,6016,robot,a robot,LDB52,2.61745,tech,ldb,m,South or Southeast Asian,NA,**not yet 4 years old,run_03,NA,3.88828039415,#79e3f9,choices,make choices,yes,1,0,7120,robot,a robot,LDB52,2.61745,tech,ldb,m,South or Southeast Asian,NA,**not yet 4 years old,run_03,NA,3.88828039416,#d0d9ae,odors,smell things,yes,1,0,7236,robot,a robot,LDB52,2.61745,tech,ldb,m,South or Southeast Asian,NA,**not yet 4 years old,run_03,NA,3.88828039417,#a9e7e4,happy,feel happy,no,0,0,8026,robot,a robot,LDB52,2.61745,tech,ldb,m,South or Southeast Asian,NA,**not yet 4 years old,run_03,NA,3.88828039418,#e3d3af,guilt,feel guilty,yes,1,0,8275,robot,a robot,LDB52,2.61745,tech,ldb,m,South or Southeast Asian,NA,**not yet 4 years old,run_03,NA,3.88828039419,#e3dbc8,temperature,sense temperatures,yes,1,0,5243,robot,a robot,LDB52,2.61745,tech,ldb,m,South or Southeast Asian,NA,**not yet 4 years old,run_03,NA,3.88828039420,#b4dbe7,depressed,feel sad,no,0,0,5086,robot,a robot,LDB52,2.61745,tech,ldb,m,South or Southeast Asian,NA,**not yet 4 years old,run_03,NA,3.8882803941,#d1e48e,disrespected,get hurt feelings,no,0,0,63056,computer,a computer,CX18,6.83065,Bing,CX,f,C,maybe,seemed distracted so I took her back early (it was her birthday),run_03,NA,4.0005476452,#f2cdb9,pride,feel proud,yes,1,0,8256,computer,a computer,CX18,6.83065,Bing,CX,f,C,,seemed distracted so I took her back early (it was her birthday),run_03,NA,4.0005476453,#64f8f4,happy,feel happy,yes,1,0,6144,computer,a computer,CX18,6.83065,Bing,CX,f,C,,seemed distracted so I took her back early (it was her birthday),run_03,NA,4.0005476454,#f0d9a2,depth,sense whether something is close by or far away,skip,NA,192075,79174,computer,a computer,CX18,6.83065,Bing,CX,f,C,,seemed distracted so I took her back early (it was her birthday),run_03,NA,4.0005476455,#aceab4,tired,feel tired,yes,1,0,8493,computer,a computer,CX18,6.83065,Bing,CX,f,C,,seemed distracted so I took her back early (it was her birthday),run_03,NA,4.0005476456,#3eeaef,reasoning,figure out how to do things,no,0,0,14997,computer,a computer,CX18,6.83065,Bing,CX,f,C,cuz it can't walk,seemed distracted so I took her back early (it was her birthday),run_03,NA,4.0005476457,#dedfa2,fear,feel scared,yes,1,0,15017,computer,a computer,CX18,6.83065,Bing,CX,f,C,maybe,seemed distracted so I took her back early (it was her birthday),run_03,NA,4.0005476458,#c2e9f5,nauseated,feel sick -- like when you feel like you might throw up,no,0,0,20332,computer,a computer,CX18,6.83065,Bing,CX,f,C,"cuz it doesn't have a mouth, not anywhere on the computer",seemed distracted so I took her back early (it was her birthday),run_03,NA,4.0005476459,#a9e7e4,pain,feel pain,bail,NA,967,165972,computer,a computer,CX18,6.83065,Bing,CX,f,C,,seemed distracted so I took her back early (it was her birthday),run_03,NA,4.0005476451,#dee7bc,pain,feel pain,kinda,0.5,0,15474,mouse,a mouse,CX56,3.130633333,Bing,CX,f,A,NA,NA,run_03,NA,4.0553121582,#cde8e2,odors,smell things,no,0,0,5424,mouse,a mouse,CX56,3.130633333,Bing,CX,f,A,NA,NA,run_03,NA,4.0553121583,#d0e0c8,guilt,feel guilty,no,0,0,11909,mouse,a mouse,CX56,3.130633333,Bing,CX,f,A,NA,NA,run_03,NA,4.0553121584,#3eeaef,depressed,feel sad,yes,1,0,10639,mouse,a mouse,CX56,3.130633333,Bing,CX,f,A,NA,NA,run_03,NA,4.0553121585,#fde096,conscious,be aware of things,yes,1,0,5478,mouse,a mouse,CX56,3.130633333,Bing,CX,f,A,NA,NA,run_03,NA,4.0553121586,#f0d9a2,reasoning,figure out how to do things,no,0,0,5504,mouse,a mouse,CX56,3.130633333,Bing,CX,f,A,NA,NA,run_03,NA,4.0553121587,#79e3f9,fear,feel scared,yes,1,0,5656,mouse,a mouse,CX56,3.130633333,Bing,CX,f,A,NA,NA,run_03,NA,4.0553121588,#d0d9ae,temperature,sense temperatures,yes,1,0,9914,mouse,a mouse,CX56,3.130633333,Bing,CX,f,A,NA,NA,run_03,NA,4.0553121589,#bae6c8,happy,feel happy,yes,1,0,4655,mouse,a mouse,CX56,3.130633333,Bing,CX,f,A,NA,NA,run_03,NA,4.05531215810,#d5d0fa,hungry,get hungry,yes,1,0,4436,mouse,a mouse,CX56,3.130633333,Bing,CX,f,A,NA,NA,run_03,NA,4.05531215811,#f3c5fa,love,feel love,yes,1,0,4582,mouse,a mouse,CX56,3.130633333,Bing,CX,f,A,NA,NA,run_03,NA,4.05531215812,#84eced,angry,get angry,yes,1,0,7160,mouse,a mouse,CX56,3.130633333,Bing,CX,f,A,NA,NA,run_03,NA,4.05531215813,#aceab4,remembering,remember things,no,0,0,4540,mouse,a mouse,CX56,3.130633333,Bing,CX,f,A,NA,NA,run_03,NA,4.05531215814,#f0d27e,choices,make choices,yes,1,0,5689,mouse,a mouse,CX56,3.130633333,Bing,CX,f,A,NA,NA,run_03,NA,4.05531215815,#b5eaa1,disrespected,get hurt feelings,yes,1,0,6659,mouse,a mouse,CX56,3.130633333,Bing,CX,f,A,NA,NA,run_03,NA,4.05531215816,#f2e1bc,tired,feel tired,yes,1,0,4921,mouse,a mouse,CX56,3.130633333,Bing,CX,f,A,NA,NA,run_03,NA,4.05531215817,#a7dcf9,embarrassed,feel embarrassed,no,0,0,8165,mouse,a mouse,CX56,3.130633333,Bing,CX,f,A,NA,NA,run_03,NA,4.05531215818,#d1e48e,depth,sense whether something is close by or far away,yes,1,0,9689,mouse,a mouse,CX56,3.130633333,Bing,CX,f,A,NA,NA,run_03,NA,4.05531215819,#d2dcee,pride,feel proud,yes,1,0,8912,mouse,a mouse,CX56,3.130633333,Bing,CX,f,A,NA,NA,run_03,NA,4.05531215820,#9be4c0,nauseated,feel sick -- like when you feel like you might throw up,yes,1,0,5855,mouse,a mouse,CX56,3.130633333,Bing,CX,f,A,NA,NA,run_03,NA,4.05531215821,#64f8f4,on_off,can be turned on and off,yes,1,0,8162,mouse,a mouse,CX56,3.130633333,Bing,CX,f,A,NA,NA,run_03,NA,4.05531215822,#f3d0d9,metal,is made out of metal,yes,1,0,8836,mouse,a mouse,CX56,3.130633333,Bing,CX,f,A,NA,NA,run_03,NA,4.0553121581,#d2dcee,pain,feel pain,no,0,0,8475,doll,a doll,CX38,2.580133333,Bing,CX,f,C ME,NA,NA,run_03,NA,4.0635268352,#b5eaa1,depressed,feel sad,no,0,0,5623,doll,a doll,CX38,2.580133333,Bing,CX,f,C ME,NA,NA,run_03,NA,4.0635268353,#fddbd0,depth,sense whether something is close by or far away,no,0,4990,15252,doll,a doll,CX38,2.580133333,Bing,CX,f,C ME,NA,NA,run_03,NA,4.0635268354,#a7dcf9,fear,feel scared,no,0,0,4610,doll,a doll,CX38,2.580133333,Bing,CX,f,C ME,NA,NA,run_03,NA,4.0635268355,#e3df8e,hungry,get hungry,no,0,0,4425,doll,a doll,CX38,2.580133333,Bing,CX,f,C ME,NA,NA,run_03,NA,4.0635268356,#d5d0fa,love,feel love,no,0,0,4788,doll,a doll,CX38,2.580133333,Bing,CX,f,C ME,NA,NA,run_03,NA,4.0635268357,#f3d0d9,tired,feel tired,no,0,0,4952,doll,a doll,CX38,2.580133333,Bing,CX,f,C ME,NA,NA,run_03,NA,4.0635268358,#bce98d,choices,make choices,no,0,0,5293,doll,a doll,CX38,2.580133333,Bing,CX,f,C ME,NA,NA,run_03,NA,4.0635268359,#3eeaef,pride,feel proud,no,0,0,4338,doll,a doll,CX38,2.580133333,Bing,CX,f,C ME,NA,NA,run_03,NA,4.06352683510,#5ef2da,embarrassed,feel embarrassed,no,0,0,5169,doll,a doll,CX38,2.580133333,Bing,CX,f,C ME,NA,NA,run_03,NA,4.06352683511,#84eced,temperature,sense temperatures,no,0,0,4370,doll,a doll,CX38,2.580133333,Bing,CX,f,C ME,NA,NA,run_03,NA,4.06352683512,#b4dbe7,odors,smell things,no,0,0,4971,doll,a doll,CX38,2.580133333,Bing,CX,f,C ME,NA,NA,run_03,NA,4.06352683513,#f2e1bc,conscious,be aware of things,no,0,0,5096,doll,a doll,CX38,2.580133333,Bing,CX,f,C ME,NA,NA,run_03,NA,4.06352683514,#c3e5b5,remembering,remember things,yes,1,0,11358,doll,a doll,CX38,2.580133333,Bing,CX,f,C ME,NA,NA,run_03,NA,4.06352683515,#e3dbc8,happy,feel happy,yes,1,0,7689,doll,a doll,CX38,2.580133333,Bing,CX,f,C ME,NA,NA,run_03,NA,4.06352683516,#94ebda,guilt,feel guilty,no,0,0,5169,doll,a doll,CX38,2.580133333,Bing,CX,f,C ME,NA,NA,run_03,NA,4.06352683517,#f0d9a2,nauseated,feel sick -- like when you feel like you might throw up,no,0,0,7207,doll,a doll,CX38,2.580133333,Bing,CX,f,C ME,NA,NA,run_03,NA,4.06352683518,#cae5a1,angry,get angry,no,0,0,4149,doll,a doll,CX38,2.580133333,Bing,CX,f,C ME,NA,NA,run_03,NA,4.06352683519,#ead1ec,disrespected,get hurt feelings,no,0,0,4433,doll,a doll,CX38,2.580133333,Bing,CX,f,C ME,NA,NA,run_03,NA,4.06352683520,#bae6c8,reasoning,figure out how to do things,no,0,0,4860,doll,a doll,CX38,2.580133333,Bing,CX,f,C ME,NA,NA,run_03,NA,4.06352683521,#79e3f9,on_off,can be turned on and off,no,0,0,6221,doll,a doll,CX38,2.580133333,Bing,CX,f,C ME,NA,NA,run_03,NA,4.06352683522,#64f8f4,metal,is made out of metal,no,0,0,4195,doll,a doll,CX38,2.580133333,Bing,CX,f,C ME,NA,NA,run_03,NA,4.0635268351,#b5eaa1,disrespected,get hurt feelings,no,0,0,6567,robot,a robot,O56,2.349483333,JMZ,OSH,f,White,NA,NA,run_03,NA,4.0690032862,#c3e5b5,remembering,remember things,no,0,0,6576,robot,a robot,O56,2.349483333,JMZ,OSH,f,White,NA,NA,run_03,NA,4.0690032863,#5ef2da,temperature,sense temperatures,no,0,0,6186,robot,a robot,O56,2.3495,JMZ,OSH,f,White,NA,NA,run_03,NA,4.0690032864,#aceab4,conscious,be aware of things,no,0,0,6464,robot,a robot,O56,2.3495,JMZ,OSH,f,White,NA,NA,run_03,NA,4.0690032865,#e3df8e,happy,feel happy,no,0,0,5645,robot,a robot,O56,2.3495,JMZ,OSH,f,White,NA,NA,run_03,NA,4.0690032866,#bfd6fa,embarrassed,feel embarrassed,no,0,0,5229,robot,a robot,O56,2.3495,JMZ,OSH,f,White,NA,NA,run_03,NA,4.0690032867,#d0d9ae,choices,make choices,no,0,0,5658,robot,a robot,O56,2.3495,JMZ,OSH,f,White,NA,NA,run_03,NA,4.0690032868,#84eced,depth,sense whether something is close by or far away,no,0,0,7328,robot,a robot,O56,2.3495,JMZ,OSH,f,White,NA,NA,run_03,NA,4.0690032869,#cae5a1,pride,feel proud,no,0,0,5667,robot,a robot,O56,2.3495,JMZ,OSH,f,White,NA,NA,run_03,NA,4.06900328610,#ead1ec,nauseated,feel sick -- like when you feel like you might throw up,no,0,0,6957,robot,a robot,O56,2.3495,JMZ,OSH,f,White,NA,NA,run_03,NA,4.06900328611,#f3c5fa,tired,feel tired,no,0,0,5013,robot,a robot,O56,2.3495,JMZ,OSH,f,White,NA,NA,run_03,NA,4.06900328612,#97eca5,reasoning,figure out how to do things,no,0,0,5895,robot,a robot,O56,2.3495,JMZ,OSH,f,White,NA,NA,run_03,NA,4.06900328613,#f0d27e,guilt,feel guilty,no,0,0,5183,robot,a robot,O56,2.3495,JMZ,OSH,f,White,NA,NA,run_03,NA,4.06900328614,#f0d9a2,love,feel love,no,0,0,5115,robot,a robot,O56,2.3495,JMZ,OSH,f,White,NA,NA,run_03,NA,4.06900328615,#d0e0c8,hungry,get hungry,no,0,0,5565,robot,a robot,O56,2.3495,JMZ,OSH,f,White,NA,NA,run_03,NA,4.06900328616,#bae6c8,pain,feel pain,no,0,0,5138,robot,a robot,O56,2.3495,JMZ,OSH,f,White,NA,NA,run_03,NA,4.06900328617,#fdcc93,depressed,feel sad,no,0,0,4760,robot,a robot,O56,2.3495,JMZ,OSH,f,White,NA,NA,run_03,NA,4.06900328618,#b4dbe7,fear,feel scared,no,0,0,4960,robot,a robot,O56,2.3495,JMZ,OSH,f,White,NA,NA,run_03,NA,4.06900328619,#f2e1bc,odors,smell things,no,0,0,4585,robot,a robot,O56,2.3495,JMZ,OSH,f,White,NA,NA,run_03,NA,4.06900328620,#bce98d,angry,get angry,no,0,0,5292,robot,a robot,O56,2.3495,JMZ,OSH,f,White,NA,NA,run_03,NA,4.0690032861,#f2cdb9,disrespected,get hurt feelings,no,0,0,12492,mouse,a mouse,CX44,2.379366667,Bing,CX,f,C,NA,NA,run_03,NA,4.1046002192,#d2dcee,tired,feel tired,no,0,0,5500,mouse,a mouse,CX44,2.379383333,Bing,CX,f,C,NA,NA,run_03,NA,4.1046002193,#9be4c0,angry,get angry,no,0,0,4288,mouse,a mouse,CX44,2.379383333,Bing,CX,f,C,NA,NA,run_03,NA,4.1046002194,#f0d9a2,fear,feel scared,no,0,0,4303,mouse,a mouse,CX44,2.379383333,Bing,CX,f,C,NA,NA,run_03,NA,4.1046002195,#a9e7e4,love,feel love,yes,1,0,4950,mouse,a mouse,CX44,2.379383333,Bing,CX,f,C,NA,NA,run_03,NA,4.1046002196,#f3d0d9,pain,feel pain,no,0,0,4640,mouse,a mouse,CX44,2.379383333,Bing,CX,f,C,NA,NA,run_03,NA,4.1046002197,#d0e0c8,depth,sense whether something is close by or far away,no,0,0,6519,mouse,a mouse,CX44,2.379383333,Bing,CX,f,C,NA,NA,run_03,NA,4.1046002198,#bae6c8,nauseated,feel sick -- like when you feel like you might throw up,no,0,0,7422,mouse,a mouse,CX44,2.379383333,Bing,CX,f,C,NA,NA,run_03,NA,4.1046002199,#f2e1bc,temperature,sense temperatures,no,0,0,4660,mouse,a mouse,CX44,2.379383333,Bing,CX,f,C,NA,NA,run_03,NA,4.10460021910,#a9f2ce,happy,feel happy,no,0,0,4970,mouse,a mouse,CX44,2.379383333,Bing,CX,f,C,NA,NA,run_03,NA,4.10460021911,#8cf2c3,conscious,be aware of things,no,0,0,4630,mouse,a mouse,CX44,2.379383333,Bing,CX,f,C,NA,NA,run_03,NA,4.10460021912,#d0d9ae,embarrassed,feel embarrassed,no,0,0,4446,mouse,a mouse,CX44,2.379383333,Bing,CX,f,C,NA,NA,run_03,NA,4.10460021913,#dedfa2,pride,feel proud,no,0,0,4526,mouse,a mouse,CX44,2.379383333,Bing,CX,f,C,NA,NA,run_03,NA,4.10460021914,#e3dbc8,choices,make choices,no,0,0,4299,mouse,a mouse,CX44,2.379383333,Bing,CX,f,C,NA,NA,run_03,NA,4.10460021915,#ead1ec,reasoning,figure out how to do things,no,0,0,5846,mouse,a mouse,CX44,2.379383333,Bing,CX,f,C,NA,NA,run_03,NA,4.10460021916,#a7dcf9,guilt,feel guilty,no,0,0,4973,mouse,a mouse,CX44,2.379383333,Bing,CX,f,C,NA,NA,run_03,NA,4.10460021917,#94ebda,depressed,feel sad,no,0,0,5232,mouse,a mouse,CX44,2.379383333,Bing,CX,f,C,NA,NA,run_03,NA,4.10460021918,#b4dbe7,odors,smell things,no,0,0,6462,mouse,a mouse,CX44,2.379383333,Bing,CX,f,C,NA,NA,run_03,NA,4.10460021919,#fde096,remembering,remember things,no,0,0,4572,mouse,a mouse,CX44,2.379383333,Bing,CX,f,C,NA,NA,run_03,NA,4.10460021920,#f0d27e,hungry,get hungry,no,0,0,3957,mouse,a mouse,CX44,2.379383333,Bing,CX,f,C,NA,NA,run_03,NA,4.10460021921,#d1e48e,metal,is made out of metal,no,0,0,5180,mouse,a mouse,CX44,2.379383333,Bing,CX,f,C,NA,NA,run_03,NA,4.10460021922,#fddbd0,on_off,can be turned on and off,no,0,0,4444,mouse,a mouse,CX44,2.379383333,Bing,CX,f,C,NA,NA,run_03,NA,4.1046002191,#dee7bc,guilt,feel guilty,kinda,0.5,0,11013,robot,a robot,CX45,2.8056,Bing,CX,f,ME,NA,"after the game, she told me she said ""kinda,"" then ""yes"" and ""no,"" but then said mainly ""no""--seems like she was making patterns and not really answering the questions",run_03,NA,4.1922234392,#fdcc93,pain,feel pain,kinda,0.5,0,6426,robot,a robot,CX45,2.8056,Bing,CX,f,ME,NA,"after the game, she told me she said ""kinda,"" then ""yes"" and ""no,"" but then said mainly ""no""--seems like she was making patterns and not really answering the questions",run_03,NA,4.1922234393,#97eca5,embarrassed,feel embarrassed,kinda,0.5,0,5973,robot,a robot,CX45,2.8056,Bing,CX,f,ME,NA,"after the game, she told me she said ""kinda,"" then ""yes"" and ""no,"" but then said mainly ""no""--seems like she was making patterns and not really answering the questions",run_03,NA,4.1922234394,#a7dcf9,love,feel love,kinda,0.5,0,5509,robot,a robot,CX45,2.8056,Bing,CX,f,ME,NA,"after the game, she told me she said ""kinda,"" then ""yes"" and ""no,"" but then said mainly ""no""--seems like she was making patterns and not really answering the questions",run_03,NA,4.1922234395,#dedfa2,odors,smell things,kinda,0.5,0,5318,robot,a robot,CX45,2.805616667,Bing,CX,f,ME,NA,"after the game, she told me she said ""kinda,"" then ""yes"" and ""no,"" but then said mainly ""no""--seems like she was making patterns and not really answering the questions",run_03,NA,4.1922234396,#e3d3af,pride,feel proud,yes,1,0,5991,robot,a robot,CX45,2.805616667,Bing,CX,f,ME,NA,"after the game, she told me she said ""kinda,"" then ""yes"" and ""no,"" but then said mainly ""no""--seems like she was making patterns and not really answering the questions",run_03,NA,4.1922234397,#e3df8e,depressed,feel sad,no,0,0,5354,robot,a robot,CX45,2.805616667,Bing,CX,f,ME,NA,"after the game, she told me she said ""kinda,"" then ""yes"" and ""no,"" but then said mainly ""no""--seems like she was making patterns and not really answering the questions",run_03,NA,4.1922234398,#f3d0d9,remembering,remember things,no,0,0,4823,robot,a robot,CX45,2.805616667,Bing,CX,f,ME,NA,"after the game, she told me she said ""kinda,"" then ""yes"" and ""no,"" but then said mainly ""no""--seems like she was making patterns and not really answering the questions",run_03,NA,4.1922234399,#bae6c8,happy,feel happy,yes,1,0,4663,robot,a robot,CX45,2.805616667,Bing,CX,f,ME,NA,"after the game, she told me she said ""kinda,"" then ""yes"" and ""no,"" but then said mainly ""no""--seems like she was making patterns and not really answering the questions",run_03,NA,4.19222343910,#9be4c0,conscious,be aware of things,no,0,0,11340,robot,a robot,CX45,2.805616667,Bing,CX,f,ME,NA,"after the game, she told me she said ""kinda,"" then ""yes"" and ""no,"" but then said mainly ""no""--seems like she was making patterns and not really answering the questions",run_03,NA,4.19222343911,#aceab4,reasoning,figure out how to do things,yes,1,0,6507,robot,a robot,CX45,2.805616667,Bing,CX,f,ME,NA,"after the game, she told me she said ""kinda,"" then ""yes"" and ""no,"" but then said mainly ""no""--seems like she was making patterns and not really answering the questions",run_03,NA,4.19222343912,#c3e5b5,temperature,sense temperatures,no,0,0,7863,robot,a robot,CX45,2.805616667,Bing,CX,f,ME,NA,"after the game, she told me she said ""kinda,"" then ""yes"" and ""no,"" but then said mainly ""no""--seems like she was making patterns and not really answering the questions",run_03,NA,4.19222343913,#a9e7e4,hungry,get hungry,no,0,0,6110,robot,a robot,CX45,2.805616667,Bing,CX,f,ME,NA,"after the game, she told me she said ""kinda,"" then ""yes"" and ""no,"" but then said mainly ""no""--seems like she was making patterns and not really answering the questions",run_03,NA,4.19222343914,#fde096,disrespected,get hurt feelings,no,0,0,6270,robot,a robot,CX45,2.805616667,Bing,CX,f,ME,NA,"after the game, she told me she said ""kinda,"" then ""yes"" and ""no,"" but then said mainly ""no""--seems like she was making patterns and not really answering the questions",run_03,NA,4.19222343915,#84eced,nauseated,feel sick -- like when you feel like you might throw up,no,0,0,7062,robot,a robot,CX45,2.805616667,Bing,CX,f,ME,NA,"after the game, she told me she said ""kinda,"" then ""yes"" and ""no,"" but then said mainly ""no""--seems like she was making patterns and not really answering the questions",run_03,NA,4.19222343916,#8cf2c3,angry,get angry,no,0,0,6227,robot,a robot,CX45,2.805616667,Bing,CX,f,ME,NA,"after the game, she told me she said ""kinda,"" then ""yes"" and ""no,"" but then said mainly ""no""--seems like she was making patterns and not really answering the questions",run_03,NA,4.19222343917,#b4dbe7,tired,feel tired,no,0,0,5025,robot,a robot,CX45,2.805616667,Bing,CX,f,ME,NA,"after the game, she told me she said ""kinda,"" then ""yes"" and ""no,"" but then said mainly ""no""--seems like she was making patterns and not really answering the questions",run_03,NA,4.19222343918,#d0e0c8,fear,feel scared,no,0,0,5542,robot,a robot,CX45,2.805616667,Bing,CX,f,ME,NA,"after the game, she told me she said ""kinda,"" then ""yes"" and ""no,"" but then said mainly ""no""--seems like she was making patterns and not really answering the questions",run_03,NA,4.19222343919,#f2cdb9,choices,make choices,no,0,0,6767,robot,a robot,CX45,2.805616667,Bing,CX,f,ME,NA,"after the game, she told me she said ""kinda,"" then ""yes"" and ""no,"" but then said mainly ""no""--seems like she was making patterns and not really answering the questions",run_03,NA,4.19222343920,#cae5a1,depth,sense whether something is close by or far away,no,0,0,6666,robot,a robot,CX45,2.805616667,Bing,CX,f,ME,NA,"after the game, she told me she said ""kinda,"" then ""yes"" and ""no,"" but then said mainly ""no""--seems like she was making patterns and not really answering the questions",run_03,NA,4.19222343921,#cde8e2,metal,is made out of metal,no,0,0,8496,robot,a robot,CX45,2.805616667,Bing,CX,f,ME,NA,"after the game, she told me she said ""kinda,"" then ""yes"" and ""no,"" but then said mainly ""no""--seems like she was making patterns and not really answering the questions",run_03,NA,4.19222343922,#bce98d,on_off,can be turned on and off,no,0,0,6009,robot,a robot,CX45,2.805616667,Bing,CX,f,ME,NA,"after the game, she told me she said ""kinda,"" then ""yes"" and ""no,"" but then said mainly ""no""--seems like she was making patterns and not really answering the questions",run_03,NA,4.1922234391,#cde8e2,happy,feel happy,yes,1,0,7919,computer,a computer,O41,3.698883333,JMZ,OSH,f,White,NA,"doesn't speak much English, not sure if understood all",run_03,NA,4.2086527932,#ead1ec,choices,make choices,no,0,10806,21260,computer,a computer,O41,3.698883333,JMZ,OSH,f,White,NA,"doesn't speak much English, not sure if understood all",run_03,NA,4.2086527933,#bae6c8,temperature,sense temperatures,no,0,8539,20197,computer,a computer,O41,3.698883333,JMZ,OSH,f,White,NA,"doesn't speak much English, not sure if understood all",run_03,NA,4.2086527934,#79e3f9,guilt,feel guilty,no,0,10336,17691,computer,a computer,O41,3.698883333,JMZ,OSH,f,White,NA,"doesn't speak much English, not sure if understood all",run_03,NA,4.2086527935,#e3dbc8,disrespected,get hurt feelings,yes,1,0,9893,computer,a computer,O41,3.698883333,JMZ,OSH,f,White,NA,"doesn't speak much English, not sure if understood all",run_03,NA,4.2086527936,#dee7bc,embarrassed,feel embarrassed,no,0,0,7271,computer,a computer,O41,3.698883333,JMZ,OSH,f,White,NA,"doesn't speak much English, not sure if understood all",run_03,NA,4.2086527937,#f0d9a2,depth,sense whether something is close by or far away,yes,1,0,11844,computer,a computer,O41,3.698883333,JMZ,OSH,f,White,NA,"doesn't speak much English, not sure if understood all",run_03,NA,4.2086527938,#84eced,love,feel love,yes,1,0,6287,computer,a computer,O41,3.698883333,JMZ,OSH,f,White,NA,"doesn't speak much English, not sure if understood all",run_03,NA,4.2086527939,#a7dcf9,hungry,get hungry,no,0,0,5942,computer,a computer,O41,3.698883333,JMZ,OSH,f,White,NA,"doesn't speak much English, not sure if understood all",run_03,NA,4.20865279310,#fddbd0,remembering,remember things,no,0,0,7383,computer,a computer,O41,3.698883333,JMZ,OSH,f,White,NA,"doesn't speak much English, not sure if understood all",run_03,NA,4.20865279311,#f2cdb9,angry,get angry,yes,1,0,6495,computer,a computer,O41,3.698883333,JMZ,OSH,f,White,NA,"doesn't speak much English, not sure if understood all",run_03,NA,4.20865279312,#c3e5b5,tired,feel tired,yes,1,0,6280,computer,a computer,O41,3.698883333,JMZ,OSH,f,White,NA,"doesn't speak much English, not sure if understood all",run_03,NA,4.20865279313,#64f8f4,fear,feel scared,no,0,0,5958,computer,a computer,O41,3.698883333,JMZ,OSH,f,White,NA,"doesn't speak much English, not sure if understood all",run_03,NA,4.20865279314,#f2e1bc,conscious,be aware of things,yes,1,7288,15128,computer,a computer,O41,3.698883333,JMZ,OSH,f,White,NA,"doesn't speak much English, not sure if understood all",run_03,NA,4.20865279315,#e3d3af,pride,feel proud,yes,1,0,6116,computer,a computer,O41,3.698883333,JMZ,OSH,f,White,NA,"doesn't speak much English, not sure if understood all",run_03,NA,4.20865279316,#5ef2da,nauseated,feel sick -- like when you feel like you might throw up,yes,1,0,7879,computer,a computer,O41,3.698883333,JMZ,OSH,f,White,NA,"doesn't speak much English, not sure if understood all",run_03,NA,4.20865279317,#94ebda,reasoning,figure out how to do things,yes,1,0,6523,computer,a computer,O41,3.698883333,JMZ,OSH,f,White,NA,"doesn't speak much English, not sure if understood all",run_03,NA,4.20865279318,#d1e48e,odors,smell things,yes,1,0,5932,computer,a computer,O41,3.698883333,JMZ,OSH,f,White,NA,"doesn't speak much English, not sure if understood all",run_03,NA,4.20865279319,#fde096,depressed,feel sad,yes,1,3275,11936,computer,a computer,O41,3.698883333,JMZ,OSH,f,White,NA,"doesn't speak much English, not sure if understood all",run_03,NA,4.20865279320,#f0d27e,pain,feel pain,yes,1,0,6438,computer,a computer,O41,3.698883333,JMZ,OSH,f,White,NA,"doesn't speak much English, not sure if understood all",run_03,NA,4.2086527931,#e3dbc8,pain,feel pain,skip,NA,0,42895,bird,a bird,CX52,4.073416667,Bing,CX,f,C,,NA,run_03,NA,4.2387732752,#d0e0c8,angry,get angry,skip,NA,0,24646,bird,a bird,CX52,4.073416667,Bing,CX,f,C,,NA,run_03,NA,4.2387732753,#64f8f4,fear,feel scared,yes,1,0,7135,bird,a bird,CX52,4.073416667,Bing,CX,f,C,,NA,run_03,NA,4.2387732754,#dedfa2,remembering,remember things,yes,1,0,13591,bird,a bird,CX52,4.073416667,Bing,CX,f,C,,NA,run_03,NA,4.2387732755,#cde8e2,pride,feel proud,yes,1,0,6066,bird,a bird,CX52,4.073416667,Bing,CX,f,C,,NA,run_03,NA,4.2387732756,#b5eaa1,guilt,feel guilty,yes,1,14867,18033,bird,a bird,CX52,4.073416667,Bing,CX,f,C,,NA,run_03,NA,4.2387732757,#3eeaef,happy,feel happy,yes,1,0,4790,bird,a bird,CX52,4.073416667,Bing,CX,f,C,,NA,run_03,NA,4.2387732758,#fdcc93,hungry,get hungry,yes,1,0,4993,bird,a bird,CX52,4.073416667,Bing,CX,f,C,,NA,run_03,NA,4.2387732759,#97eca5,choices,make choices,yes,1,0,4709,bird,a bird,CX52,4.073416667,Bing,CX,f,C,,NA,run_03,NA,4.23877327510,#5ef2da,temperature,sense temperatures,yes,1,0,6483,bird,a bird,CX52,4.073416667,Bing,CX,f,C,,NA,run_03,NA,4.23877327511,#e3df8e,disrespected,get hurt feelings,yes,1,0,7273,bird,a bird,CX52,4.073416667,Bing,CX,f,C,,NA,run_03,NA,4.23877327512,#8cf2c3,conscious,be aware of things,yes,1,0,5694,bird,a bird,CX52,4.073416667,Bing,CX,f,C,,NA,run_03,NA,4.23877327513,#dee7bc,depressed,feel sad,yes,1,0,4880,bird,a bird,CX52,4.073416667,Bing,CX,f,C,,NA,run_03,NA,4.23877327514,#a9e7e4,embarrassed,feel embarrassed,yes,1,0,5429,bird,a bird,CX52,4.073416667,Bing,CX,f,C,,NA,run_03,NA,4.23877327515,#fde096,love,feel love,yes,1,0,6740,bird,a bird,CX52,4.073416667,Bing,CX,f,C,,NA,run_03,NA,4.23877327516,#f3c5fa,nauseated,feel sick -- like when you feel like you might throw up,yes,1,0,8603,bird,a bird,CX52,4.073416667,Bing,CX,f,C,,NA,run_03,NA,4.23877327517,#94ebda,tired,feel tired,yes,1,0,13277,bird,a bird,CX52,4.073416667,Bing,CX,f,C,"said no, then changed answer to yes",NA,run_03,NA,4.23877327518,#e3d3af,depth,sense whether something is close by or far away,no,0,0,8165,bird,a bird,CX52,4.073416667,Bing,CX,f,C,,NA,run_03,NA,4.23877327519,#bfd6fa,odors,smell things,yes,1,0,5864,bird,a bird,CX52,4.073416667,Bing,CX,f,C,,NA,run_03,NA,4.23877327520,#bae6c8,reasoning,figure out how to do things,yes,1,0,5988,bird,a bird,CX52,4.073416667,Bing,CX,f,C,,NA,run_03,NA,4.23877327521,#c2e9f5,metal,is made out of metal,no,0,0,6120,bird,a bird,CX52,4.073416667,Bing,CX,f,C,,NA,run_03,NA,4.23877327522,#79e3f9,on_off,can be turned on and off,no,0,0,6046,bird,a bird,CX52,4.073416667,Bing,CX,f,C,,NA,run_03,NA,4.2387732751,#f2e1bc,happy,feel happy,kinda,0.5,0,11036,mouse,a mouse,CX33,6.2727,Bing,CX,m,H C,,NA,run_03,NA,4.2661555312,#b4dbe7,odors,smell things,yes,1,0,5733,mouse,a mouse,CX33,6.2727,Bing,CX,m,H C,,NA,run_03,NA,4.2661555313,#dedfa2,embarrassed,feel embarrassed,no,0,0,10894,mouse,a mouse,CX33,6.2727,Bing,CX,m,H C,,NA,run_03,NA,4.2661555314,#bfd6fa,choices,make choices,no,0,0,10366,mouse,a mouse,CX33,6.272716667,Bing,CX,m,H C,of course not because they cannot think,NA,run_03,NA,4.2661555315,#dee7bc,angry,get angry,no,0,0,12695,mouse,a mouse,CX33,6.272716667,Bing,CX,m,H C,,NA,run_03,NA,4.2661555316,#cde8e2,love,feel love,yes,1,0,6733,mouse,a mouse,CX33,6.272716667,Bing,CX,m,H C,,NA,run_03,NA,4.2661555317,#a9e7e4,disrespected,get hurt feelings,no,0,0,4491,mouse,a mouse,CX33,6.272716667,Bing,CX,m,H C,,NA,run_03,NA,4.2661555318,#aceab4,depressed,feel sad,no,0,0,4288,mouse,a mouse,CX33,6.272716667,Bing,CX,m,H C,,NA,run_03,NA,4.2661555319,#fddbd0,fear,feel scared,yes,1,0,6536,mouse,a mouse,CX33,6.272716667,Bing,CX,m,H C,,NA,run_03,NA,4.26615553110,#5ef2da,reasoning,figure out how to do things,no,0,0,5219,mouse,a mouse,CX33,6.272716667,Bing,CX,m,H C,,NA,run_03,NA,4.26615553111,#c2e9f5,guilt,feel guilty,no,0,56075,38465,mouse,a mouse,CX33,6.272716667,Bing,CX,m,H C,of course not cuz he doesn't have hands,NA,run_03,NA,4.26615553112,#d1e48e,conscious,be aware of things,kinda,0.5,25069,30855,mouse,a mouse,CX33,6.272716667,Bing,CX,m,H C,kinda maybe,NA,run_03,NA,4.26615553113,#bae6c8,remembering,remember things,yes,1,0,24241,mouse,a mouse,CX33,6.272716667,Bing,CX,m,H C,he can remember that he ate cheese,NA,run_03,NA,4.26615553114,#f0d9a2,pride,feel proud,yes,1,0,4822,mouse,a mouse,CX33,6.272716667,Bing,CX,m,H C,,NA,run_03,NA,4.26615553115,#79e3f9,depth,sense whether something is close by or far away,yes,1,0,20071,mouse,a mouse,CX33,6.272716667,Bing,CX,m,H C,,NA,run_03,NA,4.26615553116,#fdcc93,temperature,sense temperatures,no,0,0,25121,mouse,a mouse,CX33,6.272716667,Bing,CX,m,H C,"they can't, it doesn't have hands",NA,run_03,NA,4.26615553117,#d0d9ae,pain,feel pain,yes,1,2451,29284,mouse,a mouse,CX33,6.272716667,Bing,CX,m,H C,it can get a scratch or something when there's a spike,NA,run_03,NA,4.26615553118,#d2dcee,hungry,get hungry,yes,1,0,28967,mouse,a mouse,CX33,6.272716667,Bing,CX,m,H C,cuz it can eat cheese when it's hungry,NA,run_03,NA,4.26615553119,#f3d0d9,tired,feel tired,yes,1,0,5186,mouse,a mouse,CX33,6.272716667,Bing,CX,m,H C,,NA,run_03,NA,4.26615553120,#a9f2ce,nauseated,feel sick -- like when you feel like you might throw up,no,0,0,13151,mouse,a mouse,CX33,6.272716667,Bing,CX,m,H C,,NA,run_03,NA,4.26615553121,#84eced,on_off,can be turned on and off,no,0,0,7394,mouse,a mouse,CX33,6.272716667,Bing,CX,m,H C,,NA,run_03,NA,4.26615553122,#e3df8e,metal,is made out of metal,no,0,0,10504,mouse,a mouse,CX33,6.272716667,Bing,CX,m,H C,"of course not, it's real!",NA,run_03,NA,4.2661555311,#fdcc93,odors,smell things,no,0,0,9296,mouse,a mouse,CX32,3.236116667,Bing,CX,f,A I,NA,NA,run_03,NA,4.2716319822,#f0d9a2,angry,get angry,no,0,0,4869,mouse,a mouse,CX32,3.236116667,Bing,CX,f,A I,NA,NA,run_03,NA,4.2716319823,#5ef2da,remembering,remember things,no,0,0,4137,mouse,a mouse,CX32,3.236116667,Bing,CX,f,A I,NA,NA,run_03,NA,4.2716319824,#a9e7e4,reasoning,figure out how to do things,no,0,0,5407,mouse,a mouse,CX32,3.236116667,Bing,CX,f,A I,NA,NA,run_03,NA,4.2716319825,#e3df8e,pain,feel pain,yes,1,0,6531,mouse,a mouse,CX32,3.236116667,Bing,CX,f,A I,NA,NA,run_03,NA,4.2716319826,#b5eaa1,disrespected,get hurt feelings,no,0,0,3992,mouse,a mouse,CX32,3.236116667,Bing,CX,f,A I,NA,NA,run_03,NA,4.2716319827,#aceab4,tired,feel tired,no,0,0,9179,mouse,a mouse,CX32,3.236116667,Bing,CX,f,A I,NA,NA,run_03,NA,4.2716319828,#a7dcf9,nauseated,feel sick -- like when you feel like you might throw up,yes,1,0,6199,mouse,a mouse,CX32,3.236116667,Bing,CX,f,A I,NA,NA,run_03,NA,4.2716319829,#fde096,depth,sense whether something is close by or far away,no,0,0,7020,mouse,a mouse,CX32,3.236116667,Bing,CX,f,A I,NA,NA,run_03,NA,4.27163198210,#79e3f9,temperature,sense temperatures,yes,1,5979,15133,mouse,a mouse,CX32,3.236116667,Bing,CX,f,A I,NA,NA,run_03,NA,4.27163198211,#c3e5b5,depressed,feel sad,no,0,0,5058,mouse,a mouse,CX32,3.236116667,Bing,CX,f,A I,NA,NA,run_03,NA,4.27163198212,#f2e1bc,choices,make choices,no,0,0,4357,mouse,a mouse,CX32,3.236116667,Bing,CX,f,A I,NA,NA,run_03,NA,4.27163198213,#bae6c8,pride,feel proud,yes,1,0,3900,mouse,a mouse,CX32,3.236116667,Bing,CX,f,A I,NA,NA,run_03,NA,4.27163198214,#d5d0fa,guilt,feel guilty,no,0,29020,14128,mouse,a mouse,CX32,3.236116667,Bing,CX,f,A I,NA,NA,run_03,NA,4.27163198215,#cde8e2,embarrassed,feel embarrassed,yes,1,7508,12730,mouse,a mouse,CX32,3.236116667,Bing,CX,f,A I,NA,NA,run_03,NA,4.27163198216,#d2dcee,hungry,get hungry,yes,1,0,4878,mouse,a mouse,CX32,3.236116667,Bing,CX,f,A I,NA,NA,run_03,NA,4.27163198217,#8cf2c3,happy,feel happy,yes,1,0,4112,mouse,a mouse,CX32,3.236116667,Bing,CX,f,A I,NA,NA,run_03,NA,4.27163198218,#3eeaef,love,feel love,yes,1,0,3871,mouse,a mouse,CX32,3.236116667,Bing,CX,f,A I,NA,NA,run_03,NA,4.27163198219,#fddbd0,conscious,be aware of things,no,0,0,7535,mouse,a mouse,CX32,3.236133333,Bing,CX,f,A I,NA,NA,run_03,NA,4.27163198220,#bfd6fa,fear,feel scared,yes,1,0,6516,mouse,a mouse,CX32,3.236133333,Bing,CX,f,A I,NA,NA,run_03,NA,4.27163198221,#a9f2ce,on_off,can be turned on and off,no,0,0,4713,mouse,a mouse,CX32,3.236133333,Bing,CX,f,A I,NA,NA,run_03,NA,4.27163198222,#f0d27e,metal,is made out of metal,no,0,0,4855,mouse,a mouse,CX32,3.236133333,Bing,CX,f,A I,NA,NA,run_03,NA,4.2716319821,#bfd6fa,choices,make choices,yes,1,0,12226,computer,a computer,CX12,3.561583333,Bing,CX,f,A C,,NA,run_03,NA,4.2825848852,#f0d9a2,conscious,be aware of things,no,0,0,7801,computer,a computer,CX12,3.561583333,Bing,CX,f,A C,,NA,run_03,NA,4.2825848853,#d1e48e,depth,sense whether something is close by or far away,yes,1,0,8974,computer,a computer,CX12,3.561583333,Bing,CX,f,A C,,NA,run_03,NA,4.2825848854,#e3d3af,hungry,get hungry,no,0,0,7689,computer,a computer,CX12,3.561583333,Bing,CX,f,A C,,NA,run_03,NA,4.2825848855,#f2cdb9,nauseated,feel sick -- like when you feel like you might throw up,no,0,0,6700,computer,a computer,CX12,3.561583333,Bing,CX,f,A C,,NA,run_03,NA,4.2825848856,#fdcc93,embarrassed,feel embarrassed,no,0,0,5871,computer,a computer,CX12,3.561583333,Bing,CX,f,A C,,NA,run_03,NA,4.2825848857,#64f8f4,tired,feel tired,no,0,0,5731,computer,a computer,CX12,3.561583333,Bing,CX,f,A C,,NA,run_03,NA,4.2825848858,#9be4c0,guilt,feel guilty,yes,1,0,6791,computer,a computer,CX12,3.561583333,Bing,CX,f,A C,"I don't think she knows what ""guilty"" means, but I didn't want to probe or question her",NA,run_03,NA,4.2825848859,#cde8e2,reasoning,figure out how to do things,no,0,0,10256,computer,a computer,CX12,3.561583333,Bing,CX,f,A C,,NA,run_03,NA,4.28258488510,#84eced,pride,feel proud,no,0,0,6626,computer,a computer,CX12,3.561583333,Bing,CX,f,A C,,NA,run_03,NA,4.28258488511,#f3c5fa,pain,feel pain,no,0,0,4818,computer,a computer,CX12,3.5616,Bing,CX,f,A C,,NA,run_03,NA,4.28258488512,#a7dcf9,fear,feel scared,no,0,0,5018,computer,a computer,CX12,3.5616,Bing,CX,f,A C,,NA,run_03,NA,4.28258488513,#c2e9f5,temperature,sense temperatures,yes,1,0,7286,computer,a computer,CX12,3.5616,Bing,CX,f,A C,,NA,run_03,NA,4.28258488514,#dedfa2,depressed,feel sad,no,0,0,6543,computer,a computer,CX12,3.5616,Bing,CX,f,A C,,NA,run_03,NA,4.28258488515,#c3e5b5,odors,smell things,no,0,0,6546,computer,a computer,CX12,3.5616,Bing,CX,f,A C,,NA,run_03,NA,4.28258488516,#79e3f9,remembering,remember things,yes,1,0,8011,computer,a computer,CX12,3.5616,Bing,CX,f,A C,,NA,run_03,NA,4.28258488517,#fde096,disrespected,get hurt feelings,no,0,0,7959,computer,a computer,CX12,3.5616,Bing,CX,f,A C,,NA,run_03,NA,4.28258488518,#94ebda,love,feel love,no,0,0,27172,computer,a computer,CX12,3.5616,Bing,CX,f,A C,,NA,run_03,NA,4.28258488519,#3eeaef,angry,get angry,no,0,0,5549,computer,a computer,CX12,3.5616,Bing,CX,f,A C,,NA,run_03,NA,4.28258488520,#e3df8e,happy,feel happy,yes,1,0,6281,computer,a computer,CX12,3.5616,Bing,CX,f,A C,,NA,run_03,NA,4.28258488521,#d0d9ae,metal,is made out of metal,no,0,0,8679,computer,a computer,CX12,3.5616,Bing,CX,f,A C,,NA,run_03,NA,4.28258488522,#b5eaa1,on_off,can be turned on and off,no,0,0,14636,computer,a computer,CX12,3.5616,Bing,CX,f,A C,,NA,run_03,NA,4.2825848851,#fde096,nauseated,feel sick -- like when you feel like you might throw up,no,0,0,48949,beetle,a beetle,CX43,3.636683333,Bing,CX,m,A,"if they eat<c9>wait, can they eat food? Tiny food or big food?","after the game, he told me that he said ""yes"" and ""no""--seemed like he was making a pattern since his answers kept alternating between ""yes"" and ""no""",run_03,NA,4.2880613362,#f2cdb9,happy,feel happy,yes,1,0,6321,beetle,a beetle,CX43,3.636683333,Bing,CX,m,A,,"after the game, he told me that he said ""yes"" and ""no""--seemed like he was making a pattern since his answers kept alternating between ""yes"" and ""no""",run_03,NA,4.2880613363,#3eeaef,depth,sense whether something is close by or far away,no,0,0,10872,beetle,a beetle,CX43,3.636683333,Bing,CX,m,A,,"after the game, he told me that he said ""yes"" and ""no""--seemed like he was making a pattern since his answers kept alternating between ""yes"" and ""no""",run_03,NA,4.2880613364,#9be4c0,fear,feel scared,yes,1,0,6829,beetle,a beetle,CX43,3.636683333,Bing,CX,m,A,,"after the game, he told me that he said ""yes"" and ""no""--seemed like he was making a pattern since his answers kept alternating between ""yes"" and ""no""",run_03,NA,4.2880613365,#94ebda,pain,feel pain,no,0,0,5927,beetle,a beetle,CX43,3.636683333,Bing,CX,m,A,,"after the game, he told me that he said ""yes"" and ""no""--seemed like he was making a pattern since his answers kept alternating between ""yes"" and ""no""",run_03,NA,4.2880613366,#a9e7e4,temperature,sense temperatures,yes,1,0,6627,beetle,a beetle,CX43,3.6367,Bing,CX,m,A,,"after the game, he told me that he said ""yes"" and ""no""--seemed like he was making a pattern since his answers kept alternating between ""yes"" and ""no""",run_03,NA,4.2880613367,#bfd6fa,angry,get angry,yes,1,0,6134,beetle,a beetle,CX43,3.6367,Bing,CX,m,A,,"after the game, he told me that he said ""yes"" and ""no""--seemed like he was making a pattern since his answers kept alternating between ""yes"" and ""no""",run_03,NA,4.2880613368,#aceab4,odors,smell things,no,0,0,5830,beetle,a beetle,CX43,3.6367,Bing,CX,m,A,,"after the game, he told me that he said ""yes"" and ""no""--seemed like he was making a pattern since his answers kept alternating between ""yes"" and ""no""",run_03,NA,4.2880613369,#b4dbe7,remembering,remember things,yes,1,0,7703,beetle,a beetle,CX43,3.6367,Bing,CX,m,A,,"after the game, he told me that he said ""yes"" and ""no""--seemed like he was making a pattern since his answers kept alternating between ""yes"" and ""no""",run_03,NA,4.28806133610,#ead1ec,guilt,feel guilty,no,0,0,6844,beetle,a beetle,CX43,3.6367,Bing,CX,m,A,,"after the game, he told me that he said ""yes"" and ""no""--seemed like he was making a pattern since his answers kept alternating between ""yes"" and ""no""",run_03,NA,4.28806133611,#f0d27e,conscious,be aware of things,yes,1,0,6887,beetle,a beetle,CX43,3.6367,Bing,CX,m,A,,"after the game, he told me that he said ""yes"" and ""no""--seemed like he was making a pattern since his answers kept alternating between ""yes"" and ""no""",run_03,NA,4.28806133612,#fddbd0,pride,feel proud,no,0,0,6743,beetle,a beetle,CX43,3.6367,Bing,CX,m,A,,"after the game, he told me that he said ""yes"" and ""no""--seemed like he was making a pattern since his answers kept alternating between ""yes"" and ""no""",run_03,NA,4.28806133613,#f0d9a2,love,feel love,yes,1,0,6124,beetle,a beetle,CX43,3.6367,Bing,CX,m,A,,"after the game, he told me that he said ""yes"" and ""no""--seemed like he was making a pattern since his answers kept alternating between ""yes"" and ""no""",run_03,NA,4.28806133614,#d5d0fa,depressed,feel sad,no,0,0,6452,beetle,a beetle,CX43,3.6367,Bing,CX,m,A,,"after the game, he told me that he said ""yes"" and ""no""--seemed like he was making a pattern since his answers kept alternating between ""yes"" and ""no""",run_03,NA,4.28806133615,#84eced,embarrassed,feel embarrassed,yes,1,0,6527,beetle,a beetle,CX43,3.6367,Bing,CX,m,A,,"after the game, he told me that he said ""yes"" and ""no""--seemed like he was making a pattern since his answers kept alternating between ""yes"" and ""no""",run_03,NA,4.28806133616,#f3c5fa,reasoning,figure out how to do things,no,0,0,14680,beetle,a beetle,CX43,3.6367,Bing,CX,m,A,,"after the game, he told me that he said ""yes"" and ""no""--seemed like he was making a pattern since his answers kept alternating between ""yes"" and ""no""",run_03,NA,4.28806133617,#64f8f4,choices,make choices,yes,1,0,5051,beetle,a beetle,CX43,3.6367,Bing,CX,m,A,,"after the game, he told me that he said ""yes"" and ""no""--seemed like he was making a pattern since his answers kept alternating between ""yes"" and ""no""",run_03,NA,4.28806133618,#79e3f9,hungry,get hungry,no,0,0,4573,beetle,a beetle,CX43,3.6367,Bing,CX,m,A,,"after the game, he told me that he said ""yes"" and ""no""--seemed like he was making a pattern since his answers kept alternating between ""yes"" and ""no""",run_03,NA,4.28806133619,#a7dcf9,disrespected,get hurt feelings,yes,1,0,5819,beetle,a beetle,CX43,3.6367,Bing,CX,m,A,,"after the game, he told me that he said ""yes"" and ""no""--seemed like he was making a pattern since his answers kept alternating between ""yes"" and ""no""",run_03,NA,4.28806133620,#5ef2da,tired,feel tired,no,0,0,5386,beetle,a beetle,CX43,3.6367,Bing,CX,m,A,,"after the game, he told me that he said ""yes"" and ""no""--seemed like he was making a pattern since his answers kept alternating between ""yes"" and ""no""",run_03,NA,4.28806133621,#f3d0d9,metal,is made out of metal,yes,1,0,6229,beetle,a beetle,CX43,3.6367,Bing,CX,m,A,,"after the game, he told me that he said ""yes"" and ""no""--seemed like he was making a pattern since his answers kept alternating between ""yes"" and ""no""",run_03,NA,4.28806133622,#cde8e2,on_off,can be turned on and off,no,0,0,6614,beetle,a beetle,CX43,3.6367,Bing,CX,m,A,,"after the game, he told me that he said ""yes"" and ""no""--seemed like he was making a pattern since his answers kept alternating between ""yes"" and ""no""",run_03,NA,4.2880613361,#64f8f4,disrespected,get hurt feelings,no,0,0,49544,elephant,a elephant,CX29,6.556166667,Bing,CX,m,C,"only if you fall to the bush, also if you hurt your knee on the cement","he said ""maybe ___"" for a lot of responses--I eventually took it to mean that he just wasn't confident about his answers, so I interpreted ""maybe yes"" as ""yes""",run_03,NA,4.3017524642,#cae5a1,angry,get angry,yes,1,0,6174,elephant,a elephant,CX29,6.556166667,Bing,CX,m,C,,,run_03,NA,4.3017524643,#f0d27e,pain,feel pain,yes,1,0,5900,elephant,a elephant,CX29,6.556166667,Bing,CX,m,C,,,run_03,NA,4.3017524644,#5ef2da,love,feel love,yes,1,0,5912,elephant,a elephant,CX29,6.556166667,Bing,CX,m,C,,,run_03,NA,4.3017524645,#bfd6fa,fear,feel scared,yes,1,0,14340,elephant,a elephant,CX29,6.556166667,Bing,CX,m,C,maybe when they see people,,run_03,NA,4.3017524646,#bce98d,embarrassed,feel embarrassed,no,0,0,6748,elephant,a elephant,CX29,6.556166667,Bing,CX,m,C,,,run_03,NA,4.3017524647,#d0d9ae,depth,sense whether something is close by or far away,skip,NA,45912,59515,elephant,a elephant,CX29,6.556166667,Bing,CX,m,C,"wouldn't give an acceptable response when forced to choose; he said ""maybe when they ride a bike, maybe if they take an airplane""",,run_03,NA,4.3017524648,#e3dbc8,odors,smell things,no,0,0,29021,elephant,a elephant,CX29,6.556166667,Bing,CX,m,C,they can't smell cuz they have a beak,,run_03,NA,4.3017524649,#d5d0fa,reasoning,figure out how to do things,yes,1,0,35833,elephant,a elephant,CX29,6.556183333,Bing,CX,m,C,"maybe some work things, maybe yes",,run_03,NA,4.30175246410,#b4dbe7,happy,feel happy,yes,1,0,5230,elephant,a elephant,CX29,6.556183333,Bing,CX,m,C,,,run_03,NA,4.30175246411,#c2e9f5,remembering,remember things,yes,1,0,13824,elephant,a elephant,CX29,6.556183333,Bing,CX,m,C,,,run_03,NA,4.30175246412,#b5eaa1,temperature,sense temperatures,kinda,0.5,0,25773,elephant,a elephant,CX29,6.556183333,Bing,CX,m,C,maybe when they get a shot,,run_03,NA,4.30175246413,#f3d0d9,conscious,be aware of things,no,0,0,6918,elephant,a elephant,CX29,6.556183333,Bing,CX,m,C,,,run_03,NA,4.30175246414,#e3df8e,choices,make choices,yes,1,0,7541,elephant,a elephant,CX29,6.556183333,Bing,CX,m,C,,,run_03,NA,4.30175246415,#79e3f9,tired,feel tired,yes,1,0,17276,elephant,a elephant,CX29,6.556183333,Bing,CX,m,C,,,run_03,NA,4.30175246416,#a9e7e4,depressed,feel sad,yes,1,0,4499,elephant,a elephant,CX29,6.556183333,Bing,CX,m,C,,,run_03,NA,4.30175246417,#f2e1bc,hungry,get hungry,yes,1,0,27050,elephant,a elephant,CX29,6.556183333,Bing,CX,m,C,,,run_03,NA,4.30175246418,#c3e5b5,pride,feel proud,yes,1,0,4127,elephant,a elephant,CX29,6.556183333,Bing,CX,m,C,,,run_03,NA,4.30175246419,#f3c5fa,nauseated,feel sick -- like when you feel like you might throw up,yes,1,0,5784,elephant,a elephant,CX29,6.556183333,Bing,CX,m,C,,,run_03,NA,4.30175246420,#ead1ec,guilt,feel guilty,yes,1,0,16816,elephant,a elephant,CX29,6.556183333,Bing,CX,m,C,think so,,run_03,NA,4.30175246421,#fdcc93,metal,is made out of metal,no,0,0,10886,elephant,a elephant,CX29,6.556183333,Bing,CX,m,C,"they're soft, so<c9>",,run_03,NA,4.30175246422,#3eeaef,on_off,can be turned on and off,no,0,0,7597,elephant,a elephant,CX29,6.556183333,Bing,CX,m,C,,,run_03,NA,4.3017524641,#bae6c8,pain,feel pain,no,0,0,21309,beetle,a beetle,CX49,3.606566667,Bing,CX,m,ME,NA,NA,run_03,NA,4.3263964952,#3eeaef,guilt,feel guilty,yes,1,10073,12471,beetle,a beetle,CX49,3.606566667,Bing,CX,m,ME,NA,NA,run_03,NA,4.3263964953,#d0d9ae,reasoning,figure out how to do things,yes,1,0,12204,beetle,a beetle,CX49,3.606566667,Bing,CX,m,ME,NA,NA,run_03,NA,4.3263964954,#d0e0c8,hungry,get hungry,yes,1,0,4499,beetle,a beetle,CX49,3.606566667,Bing,CX,m,ME,NA,NA,run_03,NA,4.3263964955,#f2cdb9,remembering,remember things,no,0,0,14678,beetle,a beetle,CX49,3.606566667,Bing,CX,m,ME,NA,NA,run_03,NA,4.3263964956,#f0d9a2,temperature,sense temperatures,yes,1,0,9536,beetle,a beetle,CX49,3.606566667,Bing,CX,m,ME,NA,NA,run_03,NA,4.3263964957,#b5eaa1,choices,make choices,yes,1,0,7103,beetle,a beetle,CX49,3.606566667,Bing,CX,m,ME,NA,NA,run_03,NA,4.3263964958,#79e3f9,happy,feel happy,yes,1,0,4276,beetle,a beetle,CX49,3.606566667,Bing,CX,m,ME,NA,NA,run_03,NA,4.3263964959,#94ebda,tired,feel tired,yes,1,0,4646,beetle,a beetle,CX49,3.606566667,Bing,CX,m,ME,NA,NA,run_03,NA,4.32639649510,#cde8e2,embarrassed,feel embarrassed,yes,1,0,8776,beetle,a beetle,CX49,3.606566667,Bing,CX,m,ME,NA,NA,run_03,NA,4.32639649511,#c3e5b5,conscious,be aware of things,yes,1,7184,14448,beetle,a beetle,CX49,3.606566667,Bing,CX,m,ME,NA,NA,run_03,NA,4.32639649512,#c2e9f5,nauseated,feel sick -- like when you feel like you might throw up,yes,1,0,6024,beetle,a beetle,CX49,3.606566667,Bing,CX,m,ME,NA,NA,run_03,NA,4.32639649513,#e3dbc8,disrespected,get hurt feelings,yes,1,0,5120,beetle,a beetle,CX49,3.606566667,Bing,CX,m,ME,NA,NA,run_03,NA,4.32639649514,#bce98d,depth,sense whether something is close by or far away,no,0,0,8443,beetle,a beetle,CX49,3.606566667,Bing,CX,m,ME,NA,NA,run_03,NA,4.32639649515,#d1e48e,odors,smell things,yes,1,0,4497,beetle,a beetle,CX49,3.606566667,Bing,CX,m,ME,NA,NA,run_03,NA,4.32639649516,#fde096,love,feel love,no,0,0,19684,beetle,a beetle,CX49,3.606566667,Bing,CX,m,ME,NA,NA,run_03,NA,4.32639649517,#bfd6fa,angry,get angry,yes,1,0,4305,beetle,a beetle,CX49,3.606566667,Bing,CX,m,ME,NA,NA,run_03,NA,4.32639649518,#f3d0d9,depressed,feel sad,yes,1,0,4130,beetle,a beetle,CX49,3.606566667,Bing,CX,m,ME,NA,NA,run_03,NA,4.32639649519,#84eced,pride,feel proud,yes,1,0,13929,beetle,a beetle,CX49,3.606566667,Bing,CX,m,ME,NA,NA,run_03,NA,4.32639649520,#ead1ec,fear,feel scared,yes,1,0,4854,beetle,a beetle,CX49,3.606566667,Bing,CX,m,ME,NA,NA,run_03,NA,4.32639649521,#9be4c0,metal,is made out of metal,no,0,0,5089,beetle,a beetle,CX49,3.606566667,Bing,CX,m,ME,NA,NA,run_03,NA,4.32639649522,#a9e7e4,on_off,can be turned on and off,no,0,0,5256,beetle,a beetle,CX49,3.606566667,Bing,CX,m,ME,NA,NA,run_03,NA,4.3263964951,#d5d0fa,choices,make choices,no,0,0,10062,bird,a bird,CX14,3.085416667,Bing,CX,f,C H,NA,NA,run_03,NA,4.3455640742,#f2e1bc,hungry,get hungry,yes,1,0,9383,bird,a bird,CX14,3.085416667,Bing,CX,f,C H,NA,NA,run_03,NA,4.3455640743,#84eced,remembering,remember things,no,0,0,6615,bird,a bird,CX14,3.085416667,Bing,CX,f,C H,NA,NA,run_03,NA,4.3455640744,#79e3f9,nauseated,feel sick -- like when you feel like you might throw up,yes,1,0,7376,bird,a bird,CX14,3.085416667,Bing,CX,f,C H,NA,NA,run_03,NA,4.3455640745,#e3df8e,disrespected,get hurt feelings,no,0,0,8582,bird,a bird,CX14,3.085416667,Bing,CX,f,C H,NA,NA,run_03,NA,4.3455640746,#f3d0d9,reasoning,figure out how to do things,no,0,0,6779,bird,a bird,CX14,3.085416667,Bing,CX,f,C H,NA,NA,run_03,NA,4.3455640747,#a7dcf9,odors,smell things,yes,1,0,6052,bird,a bird,CX14,3.085416667,Bing,CX,f,C H,NA,NA,run_03,NA,4.3455640748,#ead1ec,pain,feel pain,no,0,0,6768,bird,a bird,CX14,3.085416667,Bing,CX,f,C H,NA,NA,run_03,NA,4.3455640749,#a9e7e4,happy,feel happy,yes,1,0,5337,bird,a bird,CX14,3.085416667,Bing,CX,f,C H,NA,NA,run_03,NA,4.34556407410,#bae6c8,angry,get angry,yes,1,0,5258,bird,a bird,CX14,3.085416667,Bing,CX,f,C H,NA,NA,run_03,NA,4.34556407411,#fddbd0,guilt,feel guilty,no,0,0,6675,bird,a bird,CX14,3.085416667,Bing,CX,f,C H,NA,NA,run_03,NA,4.34556407412,#5ef2da,depressed,feel sad,yes,1,0,5781,bird,a bird,CX14,3.085416667,Bing,CX,f,C H,NA,NA,run_03,NA,4.34556407413,#aceab4,depth,sense whether something is close by or far away,yes,1,0,7467,bird,a bird,CX14,3.085416667,Bing,CX,f,C H,NA,NA,run_03,NA,4.34556407414,#e3d3af,tired,feel tired,yes,1,0,4777,bird,a bird,CX14,3.085416667,Bing,CX,f,C H,NA,NA,run_03,NA,4.34556407415,#9be4c0,embarrassed,feel embarrassed,no,0,0,7317,bird,a bird,CX14,3.085416667,Bing,CX,f,C H,NA,NA,run_03,NA,4.34556407416,#bce98d,pride,feel proud,yes,1,0,4962,bird,a bird,CX14,3.085416667,Bing,CX,f,C H,NA,NA,run_03,NA,4.34556407417,#bfd6fa,temperature,sense temperatures,no,0,0,5857,bird,a bird,CX14,3.085416667,Bing,CX,f,C H,NA,NA,run_03,NA,4.34556407418,#97eca5,fear,feel scared,yes,1,0,5530,bird,a bird,CX14,3.085416667,Bing,CX,f,C H,NA,NA,run_03,NA,4.34556407419,#cae5a1,love,feel love,yes,1,0,6116,bird,a bird,CX14,3.085433333,Bing,CX,f,C H,NA,NA,run_03,NA,4.34556407420,#c2e9f5,conscious,be aware of things,yes,1,0,8304,bird,a bird,CX14,3.085433333,Bing,CX,f,C H,NA,NA,run_03,NA,4.34556407421,#f2cdb9,metal,is made out of metal,no,0,0,10877,bird,a bird,CX14,3.085433333,Bing,CX,f,C H,NA,NA,run_03,NA,4.34556407422,#d2dcee,on_off,can be turned on and off,no,0,0,7852,bird,a bird,CX14,3.085433333,Bing,CX,f,C H,NA,NA,run_03,NA,4.3455640741,#bae6c8,guilt,feel guilty,no,0,0,6529,computer,a computer,O39,3.604716667,JMZ,OSH,m,White,,NA,run_03,NA,4.3702081052,#d2dcee,pride,feel proud,no,0,0,5388,computer,a computer,O39,3.604733333,JMZ,OSH,m,White,,NA,run_03,NA,4.3702081053,#bfd6fa,reasoning,figure out how to do things,yes,1,0,28373,computer,a computer,O39,3.604733333,JMZ,OSH,m,White,if you push these different keys it does different things,NA,run_03,NA,4.3702081054,#b4dbe7,fear,feel scared,no,0,0,7066,computer,a computer,O39,3.604733333,JMZ,OSH,m,White,,NA,run_03,NA,4.3702081055,#d0d9ae,embarrassed,feel embarrassed,no,0,0,6960,computer,a computer,O39,3.604733333,JMZ,OSH,m,White,,NA,run_03,NA,4.3702081056,#d0e0c8,odors,smell things,no,0,0,5505,computer,a computer,O39,3.604733333,JMZ,OSH,m,White,,NA,run_03,NA,4.3702081057,#ead1ec,happy,feel happy,no,0,0,6364,computer,a computer,O39,3.604733333,JMZ,OSH,m,White,,NA,run_03,NA,4.3702081058,#5ef2da,tired,feel tired,no,0,0,4958,computer,a computer,O39,3.604733333,JMZ,OSH,m,White,,NA,run_03,NA,4.3702081059,#f3d0d9,conscious,be aware of things,no,0,0,5985,computer,a computer,O39,3.604733333,JMZ,OSH,m,White,,NA,run_03,NA,4.37020810510,#cde8e2,hungry,get hungry,no,0,0,6569,computer,a computer,O39,3.604733333,JMZ,OSH,m,White,"the only thing it can eat is electricity, you need to plug it in",NA,run_03,NA,4.37020810511,#e3dbc8,angry,get angry,no,0,0,24571,computer,a computer,O39,3.604733333,JMZ,OSH,m,White,,NA,run_03,NA,4.37020810512,#f0d9a2,choices,make choices,no,0,0,10148,computer,a computer,O39,3.604733333,JMZ,OSH,m,White,,NA,run_03,NA,4.37020810513,#aceab4,temperature,sense temperatures,no,0,4103,14722,computer,a computer,O39,3.604733333,JMZ,OSH,m,White,,NA,run_03,NA,4.37020810514,#97eca5,disrespected,get hurt feelings,no,0,0,6006,computer,a computer,O39,3.604733333,JMZ,OSH,m,White,,NA,run_03,NA,4.37020810515,#84eced,depth,sense whether something is close by or far away,no,0,0,7846,computer,a computer,O39,3.604733333,JMZ,OSH,m,White,,NA,run_03,NA,4.37020810516,#dee7bc,nauseated,feel sick -- like when you feel like you might throw up,no,0,0,15772,computer,a computer,O39,3.604733333,JMZ,OSH,m,White,I have an ear infection and I'm sick,NA,run_03,NA,4.37020810517,#fddbd0,love,feel love,no,0,0,7176,computer,a computer,O39,3.604733333,JMZ,OSH,m,White,,NA,run_03,NA,4.37020810518,#c2e9f5,pain,feel pain,no,0,0,6159,computer,a computer,O39,3.604733333,JMZ,OSH,m,White,,NA,run_03,NA,4.37020810519,#f3c5fa,depressed,feel sad,no,0,0,7332,computer,a computer,O39,3.604733333,JMZ,OSH,m,White,,NA,run_03,NA,4.37020810520,#f2e1bc,remembering,remember things,no,0,0,8089,computer,a computer,O39,3.604733333,JMZ,OSH,m,White,,NA,run_03,NA,4.3702081051,#aceab4,depressed,feel sad,no,0,0,9139,robot,a robot,O50,3.139233333,JMZ,OSH,f,Hispanic or Latino/a and White,NA,NA,run_03,NA,4.3702081052,#d2dcee,happy,feel happy,yes,1,0,5496,robot,a robot,O50,3.139233333,JMZ,OSH,f,Hispanic or Latino/a and White,NA,NA,run_03,NA,4.3702081053,#97eca5,conscious,be aware of things,yes,1,14421,15022,robot,a robot,O50,3.139233333,JMZ,OSH,f,Hispanic or Latino/a and White,NA,NA,run_03,NA,4.3702081054,#5ef2da,guilt,feel guilty,no,0,0,7690,robot,a robot,O50,3.139233333,JMZ,OSH,f,Hispanic or Latino/a and White,NA,NA,run_03,NA,4.3702081055,#d0e0c8,angry,get angry,yes,1,0,6173,robot,a robot,O50,3.139233333,JMZ,OSH,f,Hispanic or Latino/a and White,NA,NA,run_03,NA,4.3702081056,#3eeaef,pain,feel pain,no,0,0,10269,robot,a robot,O50,3.139233333,JMZ,OSH,f,Hispanic or Latino/a and White,NA,NA,run_03,NA,4.3702081057,#f3d0d9,hungry,get hungry,yes,1,0,5984,robot,a robot,O50,3.13925,JMZ,OSH,f,Hispanic or Latino/a and White,NA,NA,run_03,NA,4.3702081058,#cde8e2,tired,feel tired,no,0,0,6010,robot,a robot,O50,3.13925,JMZ,OSH,f,Hispanic or Latino/a and White,NA,NA,run_03,NA,4.3702081059,#c3e5b5,temperature,sense temperatures,no,0,0,6106,robot,a robot,O50,3.13925,JMZ,OSH,f,Hispanic or Latino/a and White,NA,NA,run_03,NA,4.37020810510,#cae5a1,love,feel love,yes,1,0,5294,robot,a robot,O50,3.13925,JMZ,OSH,f,Hispanic or Latino/a and White,NA,NA,run_03,NA,4.37020810511,#e3d3af,embarrassed,feel embarrassed,no,0,0,5948,robot,a robot,O50,3.13925,JMZ,OSH,f,Hispanic or Latino/a and White,NA,NA,run_03,NA,4.37020810512,#a9f2ce,pride,feel proud,yes,1,0,5818,robot,a robot,O50,3.13925,JMZ,OSH,f,Hispanic or Latino/a and White,NA,NA,run_03,NA,4.37020810513,#d1e48e,odors,smell things,no,0,0,10668,robot,a robot,O50,3.13925,JMZ,OSH,f,Hispanic or Latino/a and White,NA,NA,run_03,NA,4.37020810514,#b5eaa1,nauseated,feel sick -- like when you feel like you might throw up,no,0,0,19717,robot,a robot,O50,3.13925,JMZ,OSH,f,Hispanic or Latino/a and White,NA,NA,run_03,NA,4.37020810515,#84eced,depth,sense whether something is close by or far away,no,0,0,8469,robot,a robot,O50,3.13925,JMZ,OSH,f,Hispanic or Latino/a and White,NA,NA,run_03,NA,4.37020810516,#f0d27e,reasoning,figure out how to do things,yes,1,0,6254,robot,a robot,O50,3.13925,JMZ,OSH,f,Hispanic or Latino/a and White,NA,NA,run_03,NA,4.37020810517,#ead1ec,disrespected,get hurt feelings,no,0,0,6973,robot,a robot,O50,3.13925,JMZ,OSH,f,Hispanic or Latino/a and White,NA,NA,run_03,NA,4.37020810518,#c2e9f5,choices,make choices,yes,1,0,6520,robot,a robot,O50,3.13925,JMZ,OSH,f,Hispanic or Latino/a and White,NA,NA,run_03,NA,4.37020810519,#e3dbc8,remembering,remember things,no,0,0,7260,robot,a robot,O50,3.13925,JMZ,OSH,f,Hispanic or Latino/a and White,NA,NA,run_03,NA,4.37020810520,#8cf2c3,fear,feel scared,no,0,0,7289,robot,a robot,O50,3.13925,JMZ,OSH,f,Hispanic or Latino/a and White,NA,NA,run_03,NA,4.3702081051,#a9f2ce,odors,smell things,no,0,0,12864,goat,a goat,K506,4.3263,bing,kw,f,C,NA,bing between quarters,run_03,NA,4.3756845562,#b5eaa1,happy,feel happy,yes,1,0,5707,goat,a goat,K506,4.326316667,bing,kw,f,C,NA,bing between quarters,run_03,NA,4.3756845563,#d0d9ae,conscious,be aware of things,yes,1,10346,18939,goat,a goat,K506,4.326316667,bing,kw,f,C,NA,bing between quarters,run_03,NA,4.3756845564,#fde096,depressed,feel sad,yes,1,0,7461,goat,a goat,K506,4.326316667,bing,kw,f,C,NA,bing between quarters,run_03,NA,4.3756845565,#d5d0fa,love,feel love,yes,1,0,6276,goat,a goat,K506,4.326316667,bing,kw,f,C,NA,bing between quarters,run_03,NA,4.3756845566,#cde8e2,pain,feel pain,yes,1,0,7334,goat,a goat,K506,4.326333333,bing,kw,f,C,NA,bing between quarters,run_03,NA,4.3756845567,#e3df8e,nauseated,feel sick -- like when you feel like you might throw up,yes,1,0,7846,goat,a goat,K506,4.326333333,bing,kw,f,C,NA,bing between quarters,run_03,NA,4.3756845568,#f2e1bc,tired,feel tired,yes,1,0,6266,goat,a goat,K506,4.326333333,bing,kw,f,C,NA,bing between quarters,run_03,NA,4.3756845569,#f0d27e,guilt,feel guilty,yes,1,0,6532,goat,a goat,K506,4.326333333,bing,kw,f,C,NA,bing between quarters,run_03,NA,4.37568455610,#c2e9f5,remembering,remember things,yes,1,0,7178,goat,a goat,K506,4.326333333,bing,kw,f,C,NA,bing between quarters,run_03,NA,4.37568455611,#bfd6fa,temperature,sense temperatures,yes,1,0,16531,goat,a goat,K506,4.326333333,bing,kw,f,C,NA,bing between quarters,run_03,NA,4.37568455612,#3eeaef,hungry,get hungry,yes,1,0,9428,goat,a goat,K506,4.326333333,bing,kw,f,C,NA,bing between quarters,run_03,NA,4.37568455613,#d0e0c8,pride,feel proud,yes,1,0,6735,goat,a goat,K506,4.326333333,bing,kw,f,C,NA,bing between quarters,run_03,NA,4.37568455614,#a9e7e4,angry,get angry,yes,1,0,7811,goat,a goat,K506,4.326333333,bing,kw,f,C,NA,bing between quarters,run_03,NA,4.37568455615,#cae5a1,reasoning,figure out how to do things,yes,1,0,6790,goat,a goat,K506,4.326333333,bing,kw,f,C,NA,bing between quarters,run_03,NA,4.37568455616,#bce98d,fear,feel scared,yes,1,0,5485,goat,a goat,K506,4.326333333,bing,kw,f,C,NA,bing between quarters,run_03,NA,4.37568455617,#a7dcf9,embarrassed,feel embarrassed,yes,1,0,6348,goat,a goat,K506,4.326333333,bing,kw,f,C,NA,bing between quarters,run_03,NA,4.37568455618,#e3d3af,choices,make choices,yes,1,0,6880,goat,a goat,K506,4.326333333,bing,kw,f,C,NA,bing between quarters,run_03,NA,4.37568455619,#dedfa2,disrespected,get hurt feelings,yes,1,0,7403,goat,a goat,K506,4.326333333,bing,kw,f,C,NA,bing between quarters,run_03,NA,4.37568455620,#bae6c8,depth,sense whether something is close by or far away,yes,1,0,39128,goat,a goat,K506,4.326333333,bing,kw,f,C,NA,bing between quarters,run_03,NA,4.37568455621,#e3dbc8,metal,is made out of metal,yes,1,0,8476,goat,a goat,K506,4.326333333,bing,kw,f,C,NA,bing between quarters,run_03,NA,4.37568455622,#aceab4,on_off,can be turned on and off,yes,1,0,8601,goat,a goat,K506,4.326333333,bing,kw,f,C,NA,bing between quarters,run_03,NA,4.3756845561,#a9e7e4,depth,sense whether something is close by or far away,no,0,0,18050,goat,a goat,K504,3.73165,bing,kw,f,H,,bing between quarters,run_03,NA,4.3838992332,#f2e1bc,odors,smell things,yes,1,0,5051,goat,a goat,K504,3.73165,bing,kw,f,H,,bing between quarters,run_03,NA,4.3838992333,#e3dbc8,angry,get angry,yes,1,0,5800,goat,a goat,K504,3.731666667,bing,kw,f,H,,bing between quarters,run_03,NA,4.3838992334,#8cf2c3,reasoning,figure out how to do things,no,0,0,6438,goat,a goat,K504,3.731666667,bing,kw,f,H,,bing between quarters,run_03,NA,4.3838992335,#d5d0fa,happy,feel happy,yes,1,0,5178,goat,a goat,K504,3.731666667,bing,kw,f,H,,bing between quarters,run_03,NA,4.3838992336,#d2dcee,pain,feel pain,no,0,0,6085,goat,a goat,K504,3.731666667,bing,kw,f,H,,bing between quarters,run_03,NA,4.3838992337,#dedfa2,love,feel love,yes,1,0,5562,goat,a goat,K504,3.731666667,bing,kw,f,H,,bing between quarters,run_03,NA,4.3838992338,#cae5a1,conscious,be aware of things,no,0,0,6703,goat,a goat,K504,3.731666667,bing,kw,f,H,,bing between quarters,run_03,NA,4.3838992339,#aceab4,remembering,remember things,no,0,0,6500,goat,a goat,K504,3.731666667,bing,kw,f,H,,bing between quarters,run_03,NA,4.38389923310,#c2e9f5,tired,feel tired,yes,1,0,5478,goat,a goat,K504,3.731666667,bing,kw,f,H,,bing between quarters,run_03,NA,4.38389923311,#f0d9a2,nauseated,feel sick -- like when you feel like you might throw up,yes,1,0,6780,goat,a goat,K504,3.731666667,bing,kw,f,H,,bing between quarters,run_03,NA,4.38389923312,#fddbd0,pride,feel proud,yes,1,0,5159,goat,a goat,K504,3.731666667,bing,kw,f,H,,bing between quarters,run_03,NA,4.38389923313,#d0e0c8,fear,feel scared,no,0,0,6676,goat,a goat,K504,3.731666667,bing,kw,f,H,only baby ones,bing between quarters,run_03,NA,4.38389923314,#ead1ec,choices,make choices,yes,1,0,20915,goat,a goat,K504,3.731666667,bing,kw,f,H,"a mommy goat can make choices; switched answer from YES to NO when asked ""in general""",bing between quarters,run_03,NA,4.38389923315,#e3df8e,embarrassed,feel embarrassed,yes,1,0,28714,goat,a goat,K504,3.731666667,bing,kw,f,H,,bing between quarters,run_03,NA,4.38389923316,#94ebda,disrespected,get hurt feelings,yes,1,0,7276,goat,a goat,K504,3.731666667,bing,kw,f,H,,bing between quarters,run_03,NA,4.38389923317,#c3e5b5,depressed,feel sad,yes,1,0,5698,goat,a goat,K504,3.731666667,bing,kw,f,H,,bing between quarters,run_03,NA,4.38389923318,#5ef2da,guilt,feel guilty,no,0,0,9640,goat,a goat,K504,3.731666667,bing,kw,f,H,,bing between quarters,run_03,NA,4.38389923319,#dee7bc,temperature,sense temperatures,yes,1,0,6837,goat,a goat,K504,3.731666667,bing,kw,f,H,,bing between quarters,run_03,NA,4.38389923320,#f0d27e,hungry,get hungry,yes,1,0,19976,goat,a goat,K504,3.731666667,bing,kw,f,H,,bing between quarters,run_03,NA,4.38389923321,NA,metal,is made out of metal,no,0,0,NA,goat,a goat,K504,3.731666667,bing,kw,f,H,,bing between quarters,run_03,NA,4.38389923322,NA,on_off,can be turned on or off,no,0,0,NA,goat,a goat,K504,3.731666667,bing,kw,f,H,,bing between quarters,run_03,NA,4.3838992331,#84eced,tired,feel tired,kinda,0.5,0,15893,goat,a goat,CX19,2.65595,Bing,CX,f,C,"first said yes, then changed her answer to kinda",NA,run_03,NA,4.3948521362,#c2e9f5,embarrassed,feel embarrassed,yes,1,0,5934,goat,a goat,CX19,2.655966667,Bing,CX,f,C,,NA,run_03,NA,4.3948521363,#ead1ec,happy,feel happy,yes,1,0,4326,goat,a goat,CX19,2.655966667,Bing,CX,f,C,,NA,run_03,NA,4.3948521364,#94ebda,pride,feel proud,yes,1,0,4172,goat,a goat,CX19,2.655966667,Bing,CX,f,C,,NA,run_03,NA,4.3948521365,#bae6c8,disrespected,get hurt feelings,yes,1,0,4283,goat,a goat,CX19,2.655966667,Bing,CX,f,C,,NA,run_03,NA,4.3948521366,#a9f2ce,depth,sense whether something is close by or far away,yes,1,0,6673,goat,a goat,CX19,2.655966667,Bing,CX,f,C,,NA,run_03,NA,4.3948521367,#bfd6fa,choices,make choices,yes,1,0,5117,goat,a goat,CX19,2.655966667,Bing,CX,f,C,,NA,run_03,NA,4.3948521368,#aceab4,conscious,be aware of things,yes,1,0,5816,goat,a goat,CX19,2.655966667,Bing,CX,f,C,,NA,run_03,NA,4.3948521369,#d2dcee,depressed,feel sad,yes,1,0,5737,goat,a goat,CX19,2.655966667,Bing,CX,f,C,,NA,run_03,NA,4.39485213610,#5ef2da,odors,smell things,yes,1,0,5985,goat,a goat,CX19,2.655966667,Bing,CX,f,C,,NA,run_03,NA,4.39485213611,#f0d27e,guilt,feel guilty,yes,1,0,6942,goat,a goat,CX19,2.655966667,Bing,CX,f,C,,NA,run_03,NA,4.39485213612,#e3df8e,love,feel love,yes,1,0,7975,goat,a goat,CX19,2.655966667,Bing,CX,f,C,,NA,run_03,NA,4.39485213613,#8cf2c3,remembering,remember things,yes,1,0,5767,goat,a goat,CX19,2.655966667,Bing,CX,f,C,,NA,run_03,NA,4.39485213614,#b5eaa1,fear,feel scared,yes,1,0,5580,goat,a goat,CX19,2.655966667,Bing,CX,f,C,,NA,run_03,NA,4.39485213615,#3eeaef,hungry,get hungry,yes,1,0,5692,goat,a goat,CX19,2.655966667,Bing,CX,f,C,,NA,run_03,NA,4.39485213616,#a7dcf9,pain,feel pain,yes,1,0,5432,goat,a goat,CX19,2.655966667,Bing,CX,f,C,,NA,run_03,NA,4.39485213617,#e3d3af,temperature,sense temperatures,yes,1,0,4855,goat,a goat,CX19,2.655966667,Bing,CX,f,C,,NA,run_03,NA,4.39485213618,#b4dbe7,angry,get angry,yes,1,0,5013,goat,a goat,CX19,2.655966667,Bing,CX,f,C,,NA,run_03,NA,4.39485213619,#9be4c0,nauseated,feel sick -- like when you feel like you might throw up,yes,1,0,6552,goat,a goat,CX19,2.655966667,Bing,CX,f,C,,NA,run_03,NA,4.39485213620,#fde096,reasoning,figure out how to do things,yes,1,0,4310,goat,a goat,CX19,2.655966667,Bing,CX,f,C,,NA,run_03,NA,4.39485213621,#f0d9a2,metal,is made out of metal,yes,1,0,5486,goat,a goat,CX19,2.655966667,Bing,CX,f,C,,NA,run_03,NA,4.39485213622,#cae5a1,on_off,can be turned on and off,yes,1,0,6093,goat,a goat,CX19,2.655966667,Bing,CX,f,C,,NA,run_03,NA,4.3948521361,#f2e1bc,tired,feel tired,no,0,0,15959,computer,a computer,BR12,11.56243333,Bing,BR,m,ME C,,NA,run_03,NA,4.4589416062,#f3d0d9,conscious,be aware of things,yes,1,0,12809,computer,a computer,BR12,11.56243333,Bing,BR,m,ME C,,NA,run_03,NA,4.4589416063,#fdcc93,reasoning,figure out how to do things,yes,1,0,12833,computer,a computer,BR12,11.56243333,Bing,BR,m,ME C,,NA,run_03,NA,4.4589416064,#84eced,remembering,remember things,no,0,0,12814,computer,a computer,BR12,11.56243333,Bing,BR,m,ME C,,NA,run_03,NA,4.4589416065,#dee7bc,temperature,sense temperatures,no,0,5183,39825,computer,a computer,BR12,11.56243333,Bing,BR,m,ME C,"""Why are there more no's than yes's?""",NA,run_03,NA,4.4589416066,#e3df8e,choices,make choices,no,0,0,48812,computer,a computer,BR12,11.56243333,Bing,BR,m,ME C,*Laughs*,NA,run_03,NA,4.4589416067,#d2dcee,depth,sense whether something is close by or far away,no,0,0,25138,computer,a computer,BR12,11.56243333,Bing,BR,m,ME C,"""It doesn't have eyes""",NA,run_03,NA,4.4589416068,#d1e48e,disrespected,get hurt feelings,no,0,18934,29890,computer,a computer,BR12,11.56243333,Bing,BR,m,ME C,,NA,run_03,NA,4.4589416069,#cae5a1,odors,smell things,kinda,0.5,0,69841,computer,a computer,BR12,11.56243333,Bing,BR,m,ME C,"""A little of yes and a little of no""",NA,run_03,NA,4.45894160610,#f2cdb9,hungry,get hungry,no,0,0,21816,computer,a computer,BR12,11.56243333,Bing,BR,m,ME C,,NA,run_03,NA,4.45894160611,#f3c5fa,happy,feel happy,no,0,0,10946,computer,a computer,BR12,11.56243333,Bing,BR,m,ME C,,NA,run_03,NA,4.45894160612,#f0d9a2,pain,feel pain,kinda,0.5,0,46284,computer,a computer,BR12,11.56243333,Bing,BR,m,ME C,"""In-between""",NA,run_03,NA,4.45894160613,#dedfa2,embarrassed,feel embarrassed,no,0,470,13199,computer,a computer,BR12,11.56243333,Bing,BR,m,ME C,,NA,run_03,NA,4.45894160614,#fddbd0,depressed,feel sad,kinda,0.5,0,21812,computer,a computer,BR12,11.56243333,Bing,BR,m,ME C,"""In-between""",NA,run_03,NA,4.45894160615,#3eeaef,pride,feel proud,no,0,0,10685,computer,a computer,BR12,11.56243333,Bing,BR,m,ME C,,NA,run_03,NA,4.45894160616,#bae6c8,guilt,feel guilty,no,0,23841,49364,computer,a computer,BR12,11.56243333,Bing,BR,m,ME C,,NA,run_03,NA,4.45894160617,#a9e7e4,love,feel love,kinda,0.5,0,34589,computer,a computer,BR12,11.56243333,Bing,BR,m,ME C,"""In-between""",NA,run_03,NA,4.45894160618,#b5eaa1,fear,feel scared,no,0,0,14562,computer,a computer,BR12,11.56243333,Bing,BR,m,ME C,,NA,run_03,NA,4.45894160619,#f0d27e,nauseated,feel sick -- like when you feel like you might throw up,no,0,424,46050,computer,a computer,BR12,11.56243333,Bing,BR,m,ME C,"""What are these colors for?""",NA,run_03,NA,4.45894160620,#64f8f4,angry,get angry,no,0,0,90299,computer,a computer,BR12,11.56243333,Bing,BR,m,ME C,"""I want to leave<83>""",NA,run_03,NA,4.45894160621,#8cf2c3,metal,is made out of metal,yes,1,0,10480,computer,a computer,BR12,11.56243333,Bing,BR,m,ME C,,NA,run_03,NA,4.45894160622,#bfd6fa,on_off,can be turned on and off,yes,1,0,19104,computer,a computer,BR12,11.56243333,Bing,BR,m,ME C,,NA,run_03,NA,4.4589416061,#b5eaa1,embarrassed,feel embarrassed,yes,1,0,9726,mouse,a mouse,CX30,2.734483333,Bing,CX,f,C,,NA,run_03,NA,4.4605695512,#fddbd0,temperature,sense temperatures,no,0,0,5666,mouse,a mouse,CX30,2.7345,Bing,CX,f,C,,NA,run_03,NA,4.4605695513,#bfd6fa,disrespected,get hurt feelings,yes,1,0,8479,mouse,a mouse,CX30,2.7345,Bing,CX,f,C,,NA,run_03,NA,4.4605695514,#fdcc93,fear,feel scared,yes,1,0,4061,mouse,a mouse,CX30,2.7345,Bing,CX,f,C,,NA,run_03,NA,4.4605695515,#84eced,pride,feel proud,yes,1,0,8716,mouse,a mouse,CX30,2.7345,Bing,CX,f,C,,NA,run_03,NA,4.4605695516,#dedfa2,depth,sense whether something is close by or far away,no,0,7072,16649,mouse,a mouse,CX30,2.7345,Bing,CX,f,C,"said ""close by, yes"" first, and then I presented the definition and she changed her answer to ""no""",NA,run_03,NA,4.4605695517,#8cf2c3,hungry,get hungry,yes,1,0,4825,mouse,a mouse,CX30,2.7345,Bing,CX,f,C,,NA,run_03,NA,4.4605695518,#dee7bc,love,feel love,yes,1,0,5195,mouse,a mouse,CX30,2.7345,Bing,CX,f,C,,NA,run_03,NA,4.4605695519,#d0e0c8,odors,smell things,yes,1,0,4505,mouse,a mouse,CX30,2.7345,Bing,CX,f,C,,NA,run_03,NA,4.46056955110,#f2cdb9,guilt,feel guilty,yes,1,0,4630,mouse,a mouse,CX30,2.7345,Bing,CX,f,C,,NA,run_03,NA,4.46056955111,#bae6c8,nauseated,feel sick -- like when you feel like you might throw up,yes,1,0,6211,mouse,a mouse,CX30,2.7345,Bing,CX,f,C,,NA,run_03,NA,4.46056955112,#c3e5b5,tired,feel tired,yes,1,0,4799,mouse,a mouse,CX30,2.7345,Bing,CX,f,C,,NA,run_03,NA,4.46056955113,#9be4c0,remembering,remember things,no,0,0,4873,mouse,a mouse,CX30,2.7345,Bing,CX,f,C,,NA,run_03,NA,4.46056955114,#97eca5,depressed,feel sad,yes,1,0,6145,mouse,a mouse,CX30,2.7345,Bing,CX,f,C,,NA,run_03,NA,4.46056955115,#cae5a1,choices,make choices,yes,1,0,5449,mouse,a mouse,CX30,2.7345,Bing,CX,f,C,,NA,run_03,NA,4.46056955116,#bce98d,happy,feel happy,yes,1,0,4686,mouse,a mouse,CX30,2.7345,Bing,CX,f,C,,NA,run_03,NA,4.46056955117,#f2e1bc,angry,get angry,no,0,0,5116,mouse,a mouse,CX30,2.7345,Bing,CX,f,C,,NA,run_03,NA,4.46056955118,#5ef2da,reasoning,figure out how to do things,no,0,0,6322,mouse,a mouse,CX30,2.7345,Bing,CX,f,C,,NA,run_03,NA,4.46056955119,#f0d27e,conscious,be aware of things,no,0,0,6749,mouse,a mouse,CX30,2.7345,Bing,CX,f,C,,NA,run_03,NA,4.46056955120,#c2e9f5,pain,feel pain,yes,1,0,5862,mouse,a mouse,CX30,2.7345,Bing,CX,f,C,,NA,run_03,NA,4.46056955121,#a7dcf9,on_off,can be turned on and off,no,0,0,6798,mouse,a mouse,CX30,2.7345,Bing,CX,f,C,,NA,run_03,NA,4.46056955122,#f0d9a2,metal,is made out of metal,no,0,0,4639,mouse,a mouse,CX30,2.7345,Bing,CX,f,C,,NA,run_03,NA,4.4605695511,#a9f2ce,happy,feel happy,no,0,0,9801,teddy_bear,a teddy bear,CX26,2.0087,Bing,CX,f,ME Cj,NA,"didn<d5>t finish because she saw/heard her grandmother outside and wanted to be with her grandmother, who was visiting for the day",run_03,NA,4.5016429352,#8cf2c3,pride,feel proud,yes,1,0,8523,teddy_bear,a teddy bear,CX26,2.008716667,Bing,CX,f,ME Cj,NA,"didn<d5>t finish because she saw/heard her grandmother outside and wanted to be with her grandmother, who was visiting for the day",run_03,NA,4.5016429353,#e3df8e,odors,smell things,yes,1,0,4845,teddy_bear,a teddy bear,CX26,2.008716667,Bing,CX,f,ME Cj,NA,"didn<d5>t finish because she saw/heard her grandmother outside and wanted to be with her grandmother, who was visiting for the day",run_03,NA,4.5016429354,#b4dbe7,conscious,be aware of things,no,0,0,4772,teddy_bear,a teddy bear,CX26,2.008716667,Bing,CX,f,ME Cj,NA,"didn<d5>t finish because she saw/heard her grandmother outside and wanted to be with her grandmother, who was visiting for the day",run_03,NA,4.5016429355,#cde8e2,angry,get angry,yes,1,0,7257,teddy_bear,a teddy bear,CX26,2.008716667,Bing,CX,f,ME Cj,NA,"didn<d5>t finish because she saw/heard her grandmother outside and wanted to be with her grandmother, who was visiting for the day",run_03,NA,4.5016429356,#d0e0c8,tired,feel tired,yes,1,0,4551,teddy_bear,a teddy bear,CX26,2.008716667,Bing,CX,f,ME Cj,NA,"didn<d5>t finish because she saw/heard her grandmother outside and wanted to be with her grandmother, who was visiting for the day",run_03,NA,4.5016429357,#84eced,guilt,feel guilty,no,0,0,4890,teddy_bear,a teddy bear,CX26,2.008716667,Bing,CX,f,ME Cj,NA,"didn<d5>t finish because she saw/heard her grandmother outside and wanted to be with her grandmother, who was visiting for the day",run_03,NA,4.5016429358,#f3c5fa,depth,sense whether something is close by or far away,yes,1,0,7735,teddy_bear,a teddy bear,CX26,2.008716667,Bing,CX,f,ME Cj,NA,"didn<d5>t finish because she saw/heard her grandmother outside and wanted to be with her grandmother, who was visiting for the day",run_03,NA,4.5016429359,#d1e48e,remembering,remember things,kinda,0.5,0,8451,teddy_bear,a teddy bear,CX26,2.008733333,Bing,CX,f,ME Cj,NA,"didn<d5>t finish because she saw/heard her grandmother outside and wanted to be with her grandmother, who was visiting for the day",run_03,NA,4.50164293510,#bfd6fa,embarrassed,feel embarrassed,no,0,0,5494,teddy_bear,a teddy bear,CX26,2.008733333,Bing,CX,f,ME Cj,NA,"didn<d5>t finish because she saw/heard her grandmother outside and wanted to be with her grandmother, who was visiting for the day",run_03,NA,4.50164293511,#5ef2da,nauseated,feel sick -- like when you feel like you might throw up,yes,1,0,5320,teddy_bear,a teddy bear,CX26,2.008733333,Bing,CX,f,ME Cj,NA,"didn<d5>t finish because she saw/heard her grandmother outside and wanted to be with her grandmother, who was visiting for the day",run_03,NA,4.50164293512,#f0d9a2,fear,feel scared,no,0,0,5671,teddy_bear,a teddy bear,CX26,2.008733333,Bing,CX,f,ME Cj,NA,"didn<d5>t finish because she saw/heard her grandmother outside and wanted to be with her grandmother, who was visiting for the day",run_03,NA,4.50164293513,#b5eaa1,depressed,feel sad,yes,1,0,5051,teddy_bear,a teddy bear,CX26,2.008733333,Bing,CX,f,ME Cj,NA,"didn<d5>t finish because she saw/heard her grandmother outside and wanted to be with her grandmother, who was visiting for the day",run_03,NA,4.50164293514,#79e3f9,love,feel love,bail,NA,0,14837,teddy_bear,a teddy bear,CX26,2.008733333,Bing,CX,f,ME Cj,NA,"didn<d5>t finish because she saw/heard her grandmother outside and wanted to be with her grandmother, who was visiting for the day",run_03,NA,4.5016429351,#e3dbc8,temperature,sense temperatures,no,0,0,33476,goat,a goat,CX15,6.668616667,Bing,CX,m,C,only a thermometer [can sense temperatures],"didn't know what kinda meant--I explained it as ""not yes and not no, something between the two""",run_03,NA,4.5180722892,#8cf2c3,happy,feel happy,yes,1,0,18785,goat,a goat,CX15,6.668616667,Bing,CX,m,C,animals have the same feelings we do,"didn't know what kinda meant--I explained it as ""not yes and not no, something between the two""",run_03,NA,4.5180722893,#cde8e2,pride,feel proud,yes,1,0,25215,goat,a goat,CX15,6.668616667,Bing,CX,m,C,what did I tell you? Animals have the same feelings we do,"didn't know what kinda meant--I explained it as ""not yes and not no, something between the two""",run_03,NA,4.5180722894,#3eeaef,depressed,feel sad,yes,1,0,7856,goat,a goat,CX15,6.668616667,Bing,CX,m,C,,"didn't know what kinda meant--I explained it as ""not yes and not no, something between the two""",run_03,NA,4.5180722895,#fddbd0,fear,feel scared,yes,1,0,18443,goat,a goat,CX15,6.668616667,Bing,CX,m,C,it's scared of predators,"didn't know what kinda meant--I explained it as ""not yes and not no, something between the two""",run_03,NA,4.5180722896,#f2e1bc,remembering,remember things,yes,1,0,8265,goat,a goat,CX15,6.668616667,Bing,CX,m,C,,"didn't know what kinda meant--I explained it as ""not yes and not no, something between the two""",run_03,NA,4.5180722897,#64f8f4,odors,smell things,yes,1,0,12639,goat,a goat,CX15,6.668616667,Bing,CX,m,C,,"didn't know what kinda meant--I explained it as ""not yes and not no, something between the two""",run_03,NA,4.5180722898,#9be4c0,tired,feel tired,yes,1,0,5358,goat,a goat,CX15,6.668616667,Bing,CX,m,C,,"didn't know what kinda meant--I explained it as ""not yes and not no, something between the two""",run_03,NA,4.5180722899,#97eca5,love,feel love,yes,1,0,5536,goat,a goat,CX15,6.668616667,Bing,CX,m,C,,"didn't know what kinda meant--I explained it as ""not yes and not no, something between the two""",run_03,NA,4.51807228910,#fdcc93,pain,feel pain,yes,1,0,6515,goat,a goat,CX15,6.668616667,Bing,CX,m,C,,"didn't know what kinda meant--I explained it as ""not yes and not no, something between the two""",run_03,NA,4.51807228911,#dedfa2,nauseated,feel sick -- like when you feel like you might throw up,no,0,0,12870,goat,a goat,CX15,6.668616667,Bing,CX,m,C,,"didn't know what kinda meant--I explained it as ""not yes and not no, something between the two""",run_03,NA,4.51807228912,#f3c5fa,reasoning,figure out how to do things,kinda,0.5,0,37776,goat,a goat,CX15,6.668616667,Bing,CX,m,C,,"didn't know what kinda meant--I explained it as ""not yes and not no, something between the two""",run_03,NA,4.51807228913,#fde096,conscious,be aware of things,kinda,0.5,20832,32411,goat,a goat,CX15,6.668616667,Bing,CX,m,C,"originally said yes, then changed answer to kinda","didn't know what kinda meant--I explained it as ""not yes and not no, something between the two""",run_03,NA,4.51807228914,#a7dcf9,angry,get angry,kinda,0.5,0,7547,goat,a goat,CX15,6.668616667,Bing,CX,m,C,,"didn't know what kinda meant--I explained it as ""not yes and not no, something between the two""",run_03,NA,4.51807228915,#a9f2ce,disrespected,get hurt feelings,kinda,0.5,0,6699,goat,a goat,CX15,6.668633333,Bing,CX,m,C,,"didn't know what kinda meant--I explained it as ""not yes and not no, something between the two""",run_03,NA,4.51807228916,#f2cdb9,choices,make choices,yes,1,0,6939,goat,a goat,CX15,6.668633333,Bing,CX,m,C,,"didn't know what kinda meant--I explained it as ""not yes and not no, something between the two""",run_03,NA,4.51807228917,#e3df8e,hungry,get hungry,yes,1,0,33677,goat,a goat,CX15,6.668633333,Bing,CX,m,C,goats have to stop and eat something in the middle of where they are,"didn't know what kinda meant--I explained it as ""not yes and not no, something between the two""",run_03,NA,4.51807228918,#f0d9a2,depth,sense whether something is close by or far away,kinda,0.5,0,16927,goat,a goat,CX15,6.668633333,Bing,CX,m,C,,"didn't know what kinda meant--I explained it as ""not yes and not no, something between the two""",run_03,NA,4.51807228919,#d0d9ae,embarrassed,feel embarrassed,kinda,0.5,0,10353,goat,a goat,CX15,6.668633333,Bing,CX,m,C,,"didn't know what kinda meant--I explained it as ""not yes and not no, something between the two""",run_03,NA,4.51807228920,#c3e5b5,guilt,feel guilty,kinda,0.5,196365,39996,goat,a goat,CX15,6.668633333,Bing,CX,m,C,,"didn't know what kinda meant--I explained it as ""not yes and not no, something between the two""",run_03,NA,4.51807228921,#c2e9f5,metal,is made out of metal,no,0,0,5510,goat,a goat,CX15,6.668633333,Bing,CX,m,C,,"didn't know what kinda meant--I explained it as ""not yes and not no, something between the two""",run_03,NA,4.51807228922,#ead1ec,on_off,can be turned on and off,no,0,0,14011,goat,a goat,CX15,6.668633333,Bing,CX,m,C,,"didn't know what kinda meant--I explained it as ""not yes and not no, something between the two""",run_03,NA,4.5180722891,#f0d9a2,embarrassed,feel embarrassed,no,0,0,12885,robot,a robot,CX02,3.521933333,Bing,CX,m,ME,,played right after Gender Transgressions,run_03,NA,4.5301094892,#bfd6fa,disrespected,get hurt feelings,no,0,0,9271,robot,a robot,CX02,3.52195,Bing,CX,m,ME,,played right after Gender Transgressions,run_03,NA,4.5301094893,#9be4c0,odors,smell things,no,0,0,14645,robot,a robot,CX02,3.52195,Bing,CX,m,ME,they don't even have a nose,played right after Gender Transgressions,run_03,NA,4.5301094894,#e3dbc8,remembering,remember things,no,0,0,6980,robot,a robot,CX02,3.52195,Bing,CX,m,ME,,played right after Gender Transgressions,run_03,NA,4.5301094895,#c2e9f5,tired,feel tired,no,0,0,6658,robot,a robot,CX02,3.52195,Bing,CX,m,ME,,played right after Gender Transgressions,run_03,NA,4.5301094896,#d1e48e,temperature,sense temperatures,no,0,0,6217,robot,a robot,CX02,3.52195,Bing,CX,m,ME,,played right after Gender Transgressions,run_03,NA,4.5301094897,#fddbd0,guilt,feel guilty,no,0,0,6237,robot,a robot,CX02,3.52195,Bing,CX,m,ME,,played right after Gender Transgressions,run_03,NA,4.5301094898,#94ebda,choices,make choices,no,0,0,7861,robot,a robot,CX02,3.52195,Bing,CX,m,ME,,played right after Gender Transgressions,run_03,NA,4.5301094899,#ead1ec,angry,get angry,no,0,0,9440,robot,a robot,CX02,3.52195,Bing,CX,m,ME,,played right after Gender Transgressions,run_03,NA,4.53010948910,#bae6c8,hungry,get hungry,no,0,0,6674,robot,a robot,CX02,3.52195,Bing,CX,m,ME,,played right after Gender Transgressions,run_03,NA,4.53010948911,#d0d9ae,pain,feel pain,yes,1,0,8239,robot,a robot,CX02,3.52195,Bing,CX,m,ME,,played right after Gender Transgressions,run_03,NA,4.53010948912,#8cf2c3,nauseated,feel sick -- like when you feel like you might throw up,no,0,0,7340,robot,a robot,CX02,3.52195,Bing,CX,m,ME,,played right after Gender Transgressions,run_03,NA,4.53010948913,#fdcc93,reasoning,figure out how to do things,no,0,0,8088,robot,a robot,CX02,3.52195,Bing,CX,m,ME,,played right after Gender Transgressions,run_03,NA,4.53010948914,#e3d3af,happy,feel happy,yes,1,0,6780,robot,a robot,CX02,3.52195,Bing,CX,m,ME,,played right after Gender Transgressions,run_03,NA,4.53010948915,#f0d27e,depressed,feel sad,yes,1,0,8996,robot,a robot,CX02,3.52195,Bing,CX,m,ME,,played right after Gender Transgressions,run_03,NA,4.53010948916,#d5d0fa,fear,feel scared,no,0,0,7627,robot,a robot,CX02,3.52195,Bing,CX,m,ME,,played right after Gender Transgressions,run_03,NA,4.53010948917,#f2cdb9,conscious,be aware of things,no,0,0,5931,robot,a robot,CX02,3.52195,Bing,CX,m,ME,,played right after Gender Transgressions,run_03,NA,4.53010948918,#aceab4,pride,feel proud,yes,1,0,6041,robot,a robot,CX02,3.52195,Bing,CX,m,ME,,played right after Gender Transgressions,run_03,NA,4.53010948919,#64f8f4,depth,sense whether something is close by or far away,no,0,0,8147,robot,a robot,CX02,3.52195,Bing,CX,m,ME,,played right after Gender Transgressions,run_03,NA,4.53010948920,#f3c5fa,love,feel love,yes,1,0,6700,robot,a robot,CX02,3.52195,Bing,CX,m,ME,,played right after Gender Transgressions,run_03,NA,4.530109489