"","run","subid","charName","duration","country","age","gender","englishNative","ethnicity","education","religionChild","religionNow","job","comments","trialNum","bgColor","capacity","capWording","hoverTime","rt","response","responseNum","country_selfrep"
"1","us_run_01","us_run_01_1","robot",1.49321666666667,"us",22,"male","yes_only","white","college_bachDegree","christianity_other","","Self employed",NA,1,"#f0d9a2","intentions","make plans",3828,7289,"no",0,"United States"
"2","us_run_01","us_run_01_1","robot",1.49321666666667,"us",22,"male","yes_only","white","college_bachDegree","christianity_other","","Self employed",NA,2,"#bae6c8","joy","feel joy",0,707,"no",0,"United States"
"3","us_run_01","us_run_01_1","robot",1.49321666666667,"us",22,"male","yes_only","white","college_bachDegree","christianity_other","","Self employed",NA,3,"#d0d9ae","calm","feel calm",0,615,"no",0,"United States"
"4","us_run_01","us_run_01_1","robot",1.49321666666667,"us",22,"male","yes_only","white","college_bachDegree","christianity_other","","Self employed",NA,4,"#bce98d","happy","feel happy",0,528,"no",0,"United States"
"5","us_run_01","us_run_01_1","robot",1.49321666666667,"us",22,"male","yes_only","white","college_bachDegree","christianity_other","","Self employed",NA,5,"#fde096","reasoning","figure out how to do things",0,1244,"no",0,"United States"
"6","us_run_01","us_run_01_1","robot",1.49321666666667,"us",22,"male","yes_only","white","college_bachDegree","christianity_other","","Self employed",NA,6,"#f2cdb9","choices","make choices",0,1740,"yes",1,"United States"
"7","us_run_01","us_run_01_1","robot",1.49321666666667,"us",22,"male","yes_only","white","college_bachDegree","christianity_other","","Self employed",NA,7,"#f3c5fa","hungry","get hungry",0,1040,"no",0,"United States"
"8","us_run_01","us_run_01_1","robot",1.49321666666667,"us",22,"male","yes_only","white","college_bachDegree","christianity_other","","Self employed",NA,8,"#fdcc93","guilt","feel guilty",0,758,"no",0,"United States"
"9","us_run_01","us_run_01_1","robot",1.49321666666667,"us",22,"male","yes_only","white","college_bachDegree","christianity_other","","Self employed",NA,9,"#79e3f9","fear","feel scared",0,567,"no",0,"United States"
"10","us_run_01","us_run_01_1","robot",1.49321666666667,"us",22,"male","yes_only","white","college_bachDegree","christianity_other","","Self employed",NA,10,"#c2e9f5","tired","feel tired",0,601,"no",0,"United States"
"11","us_run_01","us_run_01_1","robot",1.49321666666667,"us",22,"male","yes_only","white","college_bachDegree","christianity_other","","Self employed",NA,11,"#b4dbe7","computations","do math",0,1635,"yes",1,"United States"
"12","us_run_01","us_run_01_1","robot",1.49321666666667,"us",22,"male","yes_only","white","college_bachDegree","christianity_other","","Self employed",NA,12,"#cae5a1","self_restraint","have self-control -- like when you stop yourself from doing something you shouldn't do",999,4356,"yes",1,"United States"
"13","us_run_01","us_run_01_1","robot",1.49321666666667,"us",22,"male","yes_only","white","college_bachDegree","christianity_other","","Self employed",NA,13,"#94ebda","self_aware","be aware of itself",0,2738,"no",0,"United States"
"14","us_run_01","us_run_01_1","robot",1.49321666666667,"us",22,"male","yes_only","white","college_bachDegree","christianity_other","","Self employed",NA,14,"#a9f2ce","depressed","feel sad",0,791,"no",0,"United States"
"15","us_run_01","us_run_01_1","robot",1.49321666666667,"us",22,"male","yes_only","white","college_bachDegree","christianity_other","","Self employed",NA,15,"#3eeaef","thoughts","have thoughts",0,1059,"no",0,"United States"
"16","us_run_01","us_run_01_1","robot",1.49321666666667,"us",22,"male","yes_only","white","college_bachDegree","christianity_other","","Self employed",NA,16,"#e3d3af","desires","have desires -- like when you really want something",0,1191,"no",0,"United States"
"17","us_run_01","us_run_01_1","robot",1.49321666666667,"us",22,"male","yes_only","white","college_bachDegree","christianity_other","","Self employed",NA,17,"#aceab4","pleasure","feel pleasure -- like when something feels really good",0,1001,"no",0,"United States"
"18","us_run_01","us_run_01_1","robot",1.49321666666667,"us",22,"male","yes_only","white","college_bachDegree","christianity_other","","Self employed",NA,18,"#cde8e2","conscious","be aware of things",0,1636,"yes",1,"United States"
"19","us_run_01","us_run_01_1","robot",1.49321666666667,"us",22,"male","yes_only","white","college_bachDegree","christianity_other","","Self employed",NA,19,"#97eca5","embarrassed","feel embarrassed",0,807,"no",0,"United States"
"20","us_run_01","us_run_01_1","robot",1.49321666666667,"us",22,"male","yes_only","white","college_bachDegree","christianity_other","","Self employed",NA,20,"#e3df8e","angry","get angry",0,590,"no",0,"United States"
"21","us_run_01","us_run_01_1","robot",1.49321666666667,"us",22,"male","yes_only","white","college_bachDegree","christianity_other","","Self employed",NA,21,"#f2e1bc","love","feel love",0,501,"no",0,"United States"
"22","us_run_01","us_run_01_1","robot",1.49321666666667,"us",22,"male","yes_only","white","college_bachDegree","christianity_other","","Self employed",NA,22,"#bfd6fa","morality","know what's nice and what's mean",0,1791,"no",0,"United States"
"23","us_run_01","us_run_01_1","robot",1.49321666666667,"us",22,"male","yes_only","white","college_bachDegree","christianity_other","","Self employed",NA,23,"#dee7bc","seeing","see things",0,1443,"yes",1,"United States"
"24","us_run_01","us_run_01_1","robot",1.49321666666667,"us",22,"male","yes_only","white","college_bachDegree","christianity_other","","Self employed",NA,24,"#a7dcf9","sounds","hear sounds",0,1196,"yes",1,"United States"
"25","us_run_01","us_run_01_1","robot",1.49321666666667,"us",22,"male","yes_only","white","college_bachDegree","christianity_other","","Self employed",NA,25,"#84eced","depth","sense whether something is close by or far away",0,2029,"yes",1,"United States"
"26","us_run_01","us_run_01_1","robot",1.49321666666667,"us",22,"male","yes_only","white","college_bachDegree","christianity_other","","Self employed",NA,26,"#8cf2c3","free_will","decide what to do",0,2733,"yes",1,"United States"
"27","us_run_01","us_run_01_1","robot",1.49321666666667,"us",22,"male","yes_only","white","college_bachDegree","christianity_other","","Self employed",NA,27,"#f3d0d9","pain","feel pain",0,1770,"no",0,"United States"
"28","us_run_01","us_run_01_1","robot",1.49321666666667,"us",22,"male","yes_only","white","college_bachDegree","christianity_other","","Self employed",NA,28,"#d5d0fa","beliefs","have beliefs -- like when you think something is true",0,1419,"no",0,"United States"
"29","us_run_01","us_run_01_1","robot",1.49321666666667,"us",22,"male","yes_only","white","college_bachDegree","christianity_other","","Self employed",NA,29,"#d0e0c8","goal","have goals -- like when you're working hard to do something or make something happen",0,1832,"no",0,"United States"
"30","us_run_01","us_run_01_1","robot",1.49321666666667,"us",22,"male","yes_only","white","college_bachDegree","christianity_other","","Self employed",NA,30,"#d2dcee","recognizing","recognize somebody else",0,1228,"no",0,"United States"
"31","us_run_01","us_run_01_1","robot",1.49321666666667,"us",22,"male","yes_only","white","college_bachDegree","christianity_other","","Self employed",NA,31,"#64f8f4","communicating","communicate with somebody else",0,901,"no",0,"United States"
"32","us_run_01","us_run_01_1","robot",1.49321666666667,"us",22,"male","yes_only","white","college_bachDegree","christianity_other","","Self employed",NA,32,"#c3e5b5","temperature","sense temperatures",0,1612,"yes",1,"United States"
"33","us_run_01","us_run_01_1","robot",1.49321666666667,"us",22,"male","yes_only","white","college_bachDegree","christianity_other","","Self employed",NA,33,"#d1e48e","odors","smell things",0,1266,"no",0,"United States"
"34","us_run_01","us_run_01_1","robot",1.49321666666667,"us",22,"male","yes_only","white","college_bachDegree","christianity_other","","Self employed",NA,34,"#ead1ec","emo_recog","understand how somebody else is feeling",0,1823,"no",0,"United States"
"35","us_run_01","us_run_01_1","robot",1.49321666666667,"us",22,"male","yes_only","white","college_bachDegree","christianity_other","","Self employed",NA,35,"#e3dbc8","personality","have a personality -- like when someone is shy and somebody else is silly",0,1006,"no",0,"United States"
"36","us_run_01","us_run_01_1","robot",1.49321666666667,"us",22,"male","yes_only","white","college_bachDegree","christianity_other","","Self employed",NA,36,"#a9e7e4","pride","feel proud",0,1025,"no",0,"United States"
"37","us_run_01","us_run_01_1","robot",1.49321666666667,"us",22,"male","yes_only","white","college_bachDegree","christianity_other","","Self employed",NA,37,"#9be4c0","remembering","remember things",0,964,"no",0,"United States"
"38","us_run_01","us_run_01_1","robot",1.49321666666667,"us",22,"male","yes_only","white","college_bachDegree","christianity_other","","Self employed",NA,38,"#fddbd0","nauseated","feel sick -- like when you feel like you might throw up",0,857,"no",0,"United States"
"39","us_run_01","us_run_01_1","robot",1.49321666666667,"us",22,"male","yes_only","white","college_bachDegree","christianity_other","","Self employed",NA,39,"#f0d27e","safe","feel safe",0,1856,"no",0,"United States"
"40","us_run_01","us_run_01_1","robot",1.49321666666667,"us",22,"male","yes_only","white","college_bachDegree","christianity_other","","Self employed",NA,40,"#b5eaa1","disrespected","get hurt feelings",0,863,"no",0,"United States"
"41","us_run_01","us_run_01_2","beetle",5.26618333333333,"us",55,"male","yes_only","white","college_some","christianity_protestant, christianity_other","christianity_other","Sports Data and Information Analyst","VERY interesting and engaging. Be interesting to compare the adult estimates of some of these questions with the kids. Thanks for the interesting, and VERY well designed study. Coming from Stanford, I am not surprised as you folks frequently set the bar high for academic research on the Internet. ",1,"#f3d0d9","thoughts","have thoughts",17826,12314,"no",0,"United States of America"
"42","us_run_01","us_run_01_2","beetle",5.26618333333333,"us",55,"male","yes_only","white","college_some","christianity_protestant, christianity_other","christianity_other","Sports Data and Information Analyst","VERY interesting and engaging. Be interesting to compare the adult estimates of some of these questions with the kids. Thanks for the interesting, and VERY well designed study. Coming from Stanford, I am not surprised as you folks frequently set the bar high for academic research on the Internet. ",2,"#d2dcee","conscious","be aware of things",662,3808,"kinda",0.5,"United States of America"
"43","us_run_01","us_run_01_2","beetle",5.26618333333333,"us",55,"male","yes_only","white","college_some","christianity_protestant, christianity_other","christianity_other","Sports Data and Information Analyst","VERY interesting and engaging. Be interesting to compare the adult estimates of some of these questions with the kids. Thanks for the interesting, and VERY well designed study. Coming from Stanford, I am not surprised as you folks frequently set the bar high for academic research on the Internet. ",3,"#f2e1bc","calm","feel calm",0,3849,"no",0,"United States of America"
"44","us_run_01","us_run_01_2","beetle",5.26618333333333,"us",55,"male","yes_only","white","college_some","christianity_protestant, christianity_other","christianity_other","Sports Data and Information Analyst","VERY interesting and engaging. Be interesting to compare the adult estimates of some of these questions with the kids. Thanks for the interesting, and VERY well designed study. Coming from Stanford, I am not surprised as you folks frequently set the bar high for academic research on the Internet. ",4,"#aceab4","angry","get angry",0,1651,"no",0,"United States of America"
"45","us_run_01","us_run_01_2","beetle",5.26618333333333,"us",55,"male","yes_only","white","college_some","christianity_protestant, christianity_other","christianity_other","Sports Data and Information Analyst","VERY interesting and engaging. Be interesting to compare the adult estimates of some of these questions with the kids. Thanks for the interesting, and VERY well designed study. Coming from Stanford, I am not surprised as you folks frequently set the bar high for academic research on the Internet. ",5,"#f2cdb9","beliefs","have beliefs -- like when you think something is true",0,3864,"no",0,"United States of America"
"46","us_run_01","us_run_01_2","beetle",5.26618333333333,"us",55,"male","yes_only","white","college_some","christianity_protestant, christianity_other","christianity_other","Sports Data and Information Analyst","VERY interesting and engaging. Be interesting to compare the adult estimates of some of these questions with the kids. Thanks for the interesting, and VERY well designed study. Coming from Stanford, I am not surprised as you folks frequently set the bar high for academic research on the Internet. ",6,"#cde8e2","choices","make choices",0,2847,"kinda",0.5,"United States of America"
"47","us_run_01","us_run_01_2","beetle",5.26618333333333,"us",55,"male","yes_only","white","college_some","christianity_protestant, christianity_other","christianity_other","Sports Data and Information Analyst","VERY interesting and engaging. Be interesting to compare the adult estimates of some of these questions with the kids. Thanks for the interesting, and VERY well designed study. Coming from Stanford, I am not surprised as you folks frequently set the bar high for academic research on the Internet. ",7,"#b5eaa1","joy","feel joy",0,1728,"no",0,"United States of America"
"48","us_run_01","us_run_01_2","beetle",5.26618333333333,"us",55,"male","yes_only","white","college_some","christianity_protestant, christianity_other","christianity_other","Sports Data and Information Analyst","VERY interesting and engaging. Be interesting to compare the adult estimates of some of these questions with the kids. Thanks for the interesting, and VERY well designed study. Coming from Stanford, I am not surprised as you folks frequently set the bar high for academic research on the Internet. ",8,"#8cf2c3","depth","sense whether something is close by or far away",0,4250,"yes",1,"United States of America"
"49","us_run_01","us_run_01_2","beetle",5.26618333333333,"us",55,"male","yes_only","white","college_some","christianity_protestant, christianity_other","christianity_other","Sports Data and Information Analyst","VERY interesting and engaging. Be interesting to compare the adult estimates of some of these questions with the kids. Thanks for the interesting, and VERY well designed study. Coming from Stanford, I am not surprised as you folks frequently set the bar high for academic research on the Internet. ",9,"#79e3f9","computations","do math",0,1767,"no",0,"United States of America"
"50","us_run_01","us_run_01_2","beetle",5.26618333333333,"us",55,"male","yes_only","white","college_some","christianity_protestant, christianity_other","christianity_other","Sports Data and Information Analyst","VERY interesting and engaging. Be interesting to compare the adult estimates of some of these questions with the kids. Thanks for the interesting, and VERY well designed study. Coming from Stanford, I am not surprised as you folks frequently set the bar high for academic research on the Internet. ",10,"#5ef2da","desires","have desires -- like when you really want something",0,3732,"no",0,"United States of America"
"51","us_run_01","us_run_01_2","beetle",5.26618333333333,"us",55,"male","yes_only","white","college_some","christianity_protestant, christianity_other","christianity_other","Sports Data and Information Analyst","VERY interesting and engaging. Be interesting to compare the adult estimates of some of these questions with the kids. Thanks for the interesting, and VERY well designed study. Coming from Stanford, I am not surprised as you folks frequently set the bar high for academic research on the Internet. ",11,"#f0d27e","love","feel love",0,1397,"no",0,"United States of America"
"52","us_run_01","us_run_01_2","beetle",5.26618333333333,"us",55,"male","yes_only","white","college_some","christianity_protestant, christianity_other","christianity_other","Sports Data and Information Analyst","VERY interesting and engaging. Be interesting to compare the adult estimates of some of these questions with the kids. Thanks for the interesting, and VERY well designed study. Coming from Stanford, I am not surprised as you folks frequently set the bar high for academic research on the Internet. ",12,"#84eced","pride","feel proud",0,1581,"no",0,"United States of America"
"53","us_run_01","us_run_01_2","beetle",5.26618333333333,"us",55,"male","yes_only","white","college_some","christianity_protestant, christianity_other","christianity_other","Sports Data and Information Analyst","VERY interesting and engaging. Be interesting to compare the adult estimates of some of these questions with the kids. Thanks for the interesting, and VERY well designed study. Coming from Stanford, I am not surprised as you folks frequently set the bar high for academic research on the Internet. ",13,"#d5d0fa","disrespected","get hurt feelings",0,1494,"no",0,"United States of America"
"54","us_run_01","us_run_01_2","beetle",5.26618333333333,"us",55,"male","yes_only","white","college_some","christianity_protestant, christianity_other","christianity_other","Sports Data and Information Analyst","VERY interesting and engaging. Be interesting to compare the adult estimates of some of these questions with the kids. Thanks for the interesting, and VERY well designed study. Coming from Stanford, I am not surprised as you folks frequently set the bar high for academic research on the Internet. ",14,"#64f8f4","depressed","feel sad",0,1231,"no",0,"United States of America"
"55","us_run_01","us_run_01_2","beetle",5.26618333333333,"us",55,"male","yes_only","white","college_some","christianity_protestant, christianity_other","christianity_other","Sports Data and Information Analyst","VERY interesting and engaging. Be interesting to compare the adult estimates of some of these questions with the kids. Thanks for the interesting, and VERY well designed study. Coming from Stanford, I am not surprised as you folks frequently set the bar high for academic research on the Internet. ",15,"#d0e0c8","personality","have a personality -- like when someone is shy and somebody else is silly",0,2311,"no",0,"United States of America"
"56","us_run_01","us_run_01_2","beetle",5.26618333333333,"us",55,"male","yes_only","white","college_some","christianity_protestant, christianity_other","christianity_other","Sports Data and Information Analyst","VERY interesting and engaging. Be interesting to compare the adult estimates of some of these questions with the kids. Thanks for the interesting, and VERY well designed study. Coming from Stanford, I am not surprised as you folks frequently set the bar high for academic research on the Internet. ",16,"#f0d9a2","safe","feel safe",0,3717,"no",0,"United States of America"
"57","us_run_01","us_run_01_2","beetle",5.26618333333333,"us",55,"male","yes_only","white","college_some","christianity_protestant, christianity_other","christianity_other","Sports Data and Information Analyst","VERY interesting and engaging. Be interesting to compare the adult estimates of some of these questions with the kids. Thanks for the interesting, and VERY well designed study. Coming from Stanford, I am not surprised as you folks frequently set the bar high for academic research on the Internet. ",17,"#dedfa2","pleasure","feel pleasure -- like when something feels really good",0,3477,"kinda",0.5,"United States of America"
"58","us_run_01","us_run_01_2","beetle",5.26618333333333,"us",55,"male","yes_only","white","college_some","christianity_protestant, christianity_other","christianity_other","Sports Data and Information Analyst","VERY interesting and engaging. Be interesting to compare the adult estimates of some of these questions with the kids. Thanks for the interesting, and VERY well designed study. Coming from Stanford, I am not surprised as you folks frequently set the bar high for academic research on the Internet. ",18,"#e3df8e","embarrassed","feel embarrassed",0,1326,"no",0,"United States of America"
"59","us_run_01","us_run_01_2","beetle",5.26618333333333,"us",55,"male","yes_only","white","college_some","christianity_protestant, christianity_other","christianity_other","Sports Data and Information Analyst","VERY interesting and engaging. Be interesting to compare the adult estimates of some of these questions with the kids. Thanks for the interesting, and VERY well designed study. Coming from Stanford, I am not surprised as you folks frequently set the bar high for academic research on the Internet. ",19,"#bfd6fa","hungry","get hungry",0,1998,"kinda",0.5,"United States of America"
"60","us_run_01","us_run_01_2","beetle",5.26618333333333,"us",55,"male","yes_only","white","college_some","christianity_protestant, christianity_other","christianity_other","Sports Data and Information Analyst","VERY interesting and engaging. Be interesting to compare the adult estimates of some of these questions with the kids. Thanks for the interesting, and VERY well designed study. Coming from Stanford, I am not surprised as you folks frequently set the bar high for academic research on the Internet. ",20,"#f3c5fa","reasoning","figure out how to do things",0,3642,"no",0,"United States of America"
"61","us_run_01","us_run_01_2","beetle",5.26618333333333,"us",55,"male","yes_only","white","college_some","christianity_protestant, christianity_other","christianity_other","Sports Data and Information Analyst","VERY interesting and engaging. Be interesting to compare the adult estimates of some of these questions with the kids. Thanks for the interesting, and VERY well designed study. Coming from Stanford, I am not surprised as you folks frequently set the bar high for academic research on the Internet. ",21,"#97eca5","pain","feel pain",0,3519,"kinda",0.5,"United States of America"
"62","us_run_01","us_run_01_2","beetle",5.26618333333333,"us",55,"male","yes_only","white","college_some","christianity_protestant, christianity_other","christianity_other","Sports Data and Information Analyst","VERY interesting and engaging. Be interesting to compare the adult estimates of some of these questions with the kids. Thanks for the interesting, and VERY well designed study. Coming from Stanford, I am not surprised as you folks frequently set the bar high for academic research on the Internet. ",22,"#e3dbc8","intentions","make plans",0,1775,"no",0,"United States of America"
"63","us_run_01","us_run_01_2","beetle",5.26618333333333,"us",55,"male","yes_only","white","college_some","christianity_protestant, christianity_other","christianity_other","Sports Data and Information Analyst","VERY interesting and engaging. Be interesting to compare the adult estimates of some of these questions with the kids. Thanks for the interesting, and VERY well designed study. Coming from Stanford, I am not surprised as you folks frequently set the bar high for academic research on the Internet. ",23,"#3eeaef","happy","feel happy",0,1501,"no",0,"United States of America"
"64","us_run_01","us_run_01_2","beetle",5.26618333333333,"us",55,"male","yes_only","white","college_some","christianity_protestant, christianity_other","christianity_other","Sports Data and Information Analyst","VERY interesting and engaging. Be interesting to compare the adult estimates of some of these questions with the kids. Thanks for the interesting, and VERY well designed study. Coming from Stanford, I am not surprised as you folks frequently set the bar high for academic research on the Internet. ",24,"#94ebda","morality","know what's nice and what's mean",0,3698,"no",0,"United States of America"
"65","us_run_01","us_run_01_2","beetle",5.26618333333333,"us",55,"male","yes_only","white","college_some","christianity_protestant, christianity_other","christianity_other","Sports Data and Information Analyst","VERY interesting and engaging. Be interesting to compare the adult estimates of some of these questions with the kids. Thanks for the interesting, and VERY well designed study. Coming from Stanford, I am not surprised as you folks frequently set the bar high for academic research on the Internet. ",25,"#d0d9ae","tired","feel tired",0,1782,"no",0,"United States of America"
"66","us_run_01","us_run_01_2","beetle",5.26618333333333,"us",55,"male","yes_only","white","college_some","christianity_protestant, christianity_other","christianity_other","Sports Data and Information Analyst","VERY interesting and engaging. Be interesting to compare the adult estimates of some of these questions with the kids. Thanks for the interesting, and VERY well designed study. Coming from Stanford, I am not surprised as you folks frequently set the bar high for academic research on the Internet. ",26,"#fdcc93","seeing","see things",0,3558,"no",0,"United States of America"
"67","us_run_01","us_run_01_2","beetle",5.26618333333333,"us",55,"male","yes_only","white","college_some","christianity_protestant, christianity_other","christianity_other","Sports Data and Information Analyst","VERY interesting and engaging. Be interesting to compare the adult estimates of some of these questions with the kids. Thanks for the interesting, and VERY well designed study. Coming from Stanford, I am not surprised as you folks frequently set the bar high for academic research on the Internet. ",27,"#e3d3af","communicating","communicate with somebody else",0,1885,"no",0,"United States of America"
"68","us_run_01","us_run_01_2","beetle",5.26618333333333,"us",55,"male","yes_only","white","college_some","christianity_protestant, christianity_other","christianity_other","Sports Data and Information Analyst","VERY interesting and engaging. Be interesting to compare the adult estimates of some of these questions with the kids. Thanks for the interesting, and VERY well designed study. Coming from Stanford, I am not surprised as you folks frequently set the bar high for academic research on the Internet. ",28,"#b4dbe7","odors","smell things",0,3888,"kinda",0.5,"United States of America"
"69","us_run_01","us_run_01_2","beetle",5.26618333333333,"us",55,"male","yes_only","white","college_some","christianity_protestant, christianity_other","christianity_other","Sports Data and Information Analyst","VERY interesting and engaging. Be interesting to compare the adult estimates of some of these questions with the kids. Thanks for the interesting, and VERY well designed study. Coming from Stanford, I am not surprised as you folks frequently set the bar high for academic research on the Internet. ",29,"#c3e5b5","goal","have goals -- like when you're working hard to do something or make something happen",0,2462,"no",0,"United States of America"
"70","us_run_01","us_run_01_2","beetle",5.26618333333333,"us",55,"male","yes_only","white","college_some","christianity_protestant, christianity_other","christianity_other","Sports Data and Information Analyst","VERY interesting and engaging. Be interesting to compare the adult estimates of some of these questions with the kids. Thanks for the interesting, and VERY well designed study. Coming from Stanford, I am not surprised as you folks frequently set the bar high for academic research on the Internet. ",30,"#cae5a1","nauseated","feel sick -- like when you feel like you might throw up",0,3214,"no",0,"United States of America"
"71","us_run_01","us_run_01_2","beetle",5.26618333333333,"us",55,"male","yes_only","white","college_some","christianity_protestant, christianity_other","christianity_other","Sports Data and Information Analyst","VERY interesting and engaging. Be interesting to compare the adult estimates of some of these questions with the kids. Thanks for the interesting, and VERY well designed study. Coming from Stanford, I am not surprised as you folks frequently set the bar high for academic research on the Internet. ",31,"#fde096","self_restraint","have self-control -- like when you stop yourself from doing something you shouldn't do",0,1806,"no",0,"United States of America"
"72","us_run_01","us_run_01_2","beetle",5.26618333333333,"us",55,"male","yes_only","white","college_some","christianity_protestant, christianity_other","christianity_other","Sports Data and Information Analyst","VERY interesting and engaging. Be interesting to compare the adult estimates of some of these questions with the kids. Thanks for the interesting, and VERY well designed study. Coming from Stanford, I am not surprised as you folks frequently set the bar high for academic research on the Internet. ",32,"#a9e7e4","temperature","sense temperatures",0,2022,"kinda",0.5,"United States of America"
"73","us_run_01","us_run_01_2","beetle",5.26618333333333,"us",55,"male","yes_only","white","college_some","christianity_protestant, christianity_other","christianity_other","Sports Data and Information Analyst","VERY interesting and engaging. Be interesting to compare the adult estimates of some of these questions with the kids. Thanks for the interesting, and VERY well designed study. Coming from Stanford, I am not surprised as you folks frequently set the bar high for academic research on the Internet. ",33,"#fddbd0","recognizing","recognize somebody else",0,1821,"no",0,"United States of America"
"74","us_run_01","us_run_01_2","beetle",5.26618333333333,"us",55,"male","yes_only","white","college_some","christianity_protestant, christianity_other","christianity_other","Sports Data and Information Analyst","VERY interesting and engaging. Be interesting to compare the adult estimates of some of these questions with the kids. Thanks for the interesting, and VERY well designed study. Coming from Stanford, I am not surprised as you folks frequently set the bar high for academic research on the Internet. ",34,"#c2e9f5","guilt","feel guilty",0,1317,"no",0,"United States of America"
"75","us_run_01","us_run_01_2","beetle",5.26618333333333,"us",55,"male","yes_only","white","college_some","christianity_protestant, christianity_other","christianity_other","Sports Data and Information Analyst","VERY interesting and engaging. Be interesting to compare the adult estimates of some of these questions with the kids. Thanks for the interesting, and VERY well designed study. Coming from Stanford, I am not surprised as you folks frequently set the bar high for academic research on the Internet. ",35,"#bae6c8","emo_recog","understand how somebody else is feeling",0,1472,"no",0,"United States of America"
"76","us_run_01","us_run_01_2","beetle",5.26618333333333,"us",55,"male","yes_only","white","college_some","christianity_protestant, christianity_other","christianity_other","Sports Data and Information Analyst","VERY interesting and engaging. Be interesting to compare the adult estimates of some of these questions with the kids. Thanks for the interesting, and VERY well designed study. Coming from Stanford, I am not surprised as you folks frequently set the bar high for academic research on the Internet. ",36,"#d1e48e","remembering","remember things",0,2158,"no",0,"United States of America"
"77","us_run_01","us_run_01_2","beetle",5.26618333333333,"us",55,"male","yes_only","white","college_some","christianity_protestant, christianity_other","christianity_other","Sports Data and Information Analyst","VERY interesting and engaging. Be interesting to compare the adult estimates of some of these questions with the kids. Thanks for the interesting, and VERY well designed study. Coming from Stanford, I am not surprised as you folks frequently set the bar high for academic research on the Internet. ",37,"#dee7bc","sounds","hear sounds",0,6759,"kinda",0.5,"United States of America"
"78","us_run_01","us_run_01_2","beetle",5.26618333333333,"us",55,"male","yes_only","white","college_some","christianity_protestant, christianity_other","christianity_other","Sports Data and Information Analyst","VERY interesting and engaging. Be interesting to compare the adult estimates of some of these questions with the kids. Thanks for the interesting, and VERY well designed study. Coming from Stanford, I am not surprised as you folks frequently set the bar high for academic research on the Internet. ",38,"#a9f2ce","free_will","decide what to do",0,3252,"no",0,"United States of America"
"79","us_run_01","us_run_01_2","beetle",5.26618333333333,"us",55,"male","yes_only","white","college_some","christianity_protestant, christianity_other","christianity_other","Sports Data and Information Analyst","VERY interesting and engaging. Be interesting to compare the adult estimates of some of these questions with the kids. Thanks for the interesting, and VERY well designed study. Coming from Stanford, I am not surprised as you folks frequently set the bar high for academic research on the Internet. ",39,"#a7dcf9","self_aware","be aware of itself",0,2278,"kinda",0.5,"United States of America"
"80","us_run_01","us_run_01_2","beetle",5.26618333333333,"us",55,"male","yes_only","white","college_some","christianity_protestant, christianity_other","christianity_other","Sports Data and Information Analyst","VERY interesting and engaging. Be interesting to compare the adult estimates of some of these questions with the kids. Thanks for the interesting, and VERY well designed study. Coming from Stanford, I am not surprised as you folks frequently set the bar high for academic research on the Internet. ",40,"#9be4c0","fear","feel scared",0,2599,"kinda",0.5,"United States of America"
"81","us_run_01","us_run_01_3","robot",2.61396666666667,"us",31,"male","yes_only","white","college_assocDegree","none","none","graphic designer",NA,1,"#b5eaa1","sounds","hear sounds",0,3948,"yes",1,"us"
"82","us_run_01","us_run_01_3","robot",2.61396666666667,"us",31,"male","yes_only","white","college_assocDegree","none","none","graphic designer",NA,2,"#c3e5b5","hungry","get hungry",0,7131,"no",0,"us"
"83","us_run_01","us_run_01_3","robot",2.61396666666667,"us",31,"male","yes_only","white","college_assocDegree","none","none","graphic designer",NA,3,"#dee7bc","seeing","see things",0,3611,"yes",1,"us"
"84","us_run_01","us_run_01_3","robot",2.61396666666667,"us",31,"male","yes_only","white","college_assocDegree","none","none","graphic designer",NA,4,"#64f8f4","goal","have goals -- like when you're working hard to do something or make something happen",0,10599,"yes",1,"us"
"85","us_run_01","us_run_01_3","robot",2.61396666666667,"us",31,"male","yes_only","white","college_assocDegree","none","none","graphic designer",NA,5,"#a9f2ce","temperature","sense temperatures",0,1359,"yes",1,"us"
"86","us_run_01","us_run_01_3","robot",2.61396666666667,"us",31,"male","yes_only","white","college_assocDegree","none","none","graphic designer",NA,6,"#dedfa2","self_aware","be aware of itself",0,1446,"yes",1,"us"
"87","us_run_01","us_run_01_3","robot",2.61396666666667,"us",31,"male","yes_only","white","college_assocDegree","none","none","graphic designer",NA,7,"#f3d0d9","conscious","be aware of things",0,1174,"yes",1,"us"
"88","us_run_01","us_run_01_3","robot",2.61396666666667,"us",31,"male","yes_only","white","college_assocDegree","none","none","graphic designer",NA,8,"#8cf2c3","pain","feel pain",0,2622,"no",0,"us"
"89","us_run_01","us_run_01_3","robot",2.61396666666667,"us",31,"male","yes_only","white","college_assocDegree","none","none","graphic designer",NA,9,"#79e3f9","love","feel love",0,2959,"no",0,"us"
"90","us_run_01","us_run_01_3","robot",2.61396666666667,"us",31,"male","yes_only","white","college_assocDegree","none","none","graphic designer",NA,10,"#d5d0fa","nauseated","feel sick -- like when you feel like you might throw up",0,3261,"no",0,"us"
"91","us_run_01","us_run_01_3","robot",2.61396666666667,"us",31,"male","yes_only","white","college_assocDegree","none","none","graphic designer",NA,11,"#a9e7e4","desires","have desires -- like when you really want something",0,5197,"yes",1,"us"
"92","us_run_01","us_run_01_3","robot",2.61396666666667,"us",31,"male","yes_only","white","college_assocDegree","none","none","graphic designer",NA,12,"#fde096","guilt","feel guilty",0,2134,"no",0,"us"
"93","us_run_01","us_run_01_3","robot",2.61396666666667,"us",31,"male","yes_only","white","college_assocDegree","none","none","graphic designer",NA,13,"#bce98d","self_restraint","have self-control -- like when you stop yourself from doing something you shouldn't do",0,8260,"no",0,"us"
"94","us_run_01","us_run_01_3","robot",2.61396666666667,"us",31,"male","yes_only","white","college_assocDegree","none","none","graphic designer",NA,14,"#84eced","choices","make choices",0,1811,"yes",1,"us"
"95","us_run_01","us_run_01_3","robot",2.61396666666667,"us",31,"male","yes_only","white","college_assocDegree","none","none","graphic designer",NA,15,"#b4dbe7","embarrassed","feel embarrassed",0,1204,"no",0,"us"
"96","us_run_01","us_run_01_3","robot",2.61396666666667,"us",31,"male","yes_only","white","college_assocDegree","none","none","graphic designer",NA,16,"#d2dcee","calm","feel calm",0,2471,"yes",1,"us"
"97","us_run_01","us_run_01_3","robot",2.61396666666667,"us",31,"male","yes_only","white","college_assocDegree","none","none","graphic designer",NA,17,"#9be4c0","depressed","feel sad",0,1010,"no",0,"us"
"98","us_run_01","us_run_01_3","robot",2.61396666666667,"us",31,"male","yes_only","white","college_assocDegree","none","none","graphic designer",NA,18,"#3eeaef","emo_recog","understand how somebody else is feeling",0,1896,"no",0,"us"
"99","us_run_01","us_run_01_3","robot",2.61396666666667,"us",31,"male","yes_only","white","college_assocDegree","none","none","graphic designer",NA,19,"#d0e0c8","odors","smell things",0,1184,"no",0,"us"
"100","us_run_01","us_run_01_3","robot",2.61396666666667,"us",31,"male","yes_only","white","college_assocDegree","none","none","graphic designer",NA,20,"#f3c5fa","communicating","communicate with somebody else",0,4681,"yes",1,"us"
"101","us_run_01","us_run_01_3","robot",2.61396666666667,"us",31,"male","yes_only","white","college_assocDegree","none","none","graphic designer",NA,21,"#a7dcf9","depth","sense whether something is close by or far away",0,4938,"yes",1,"us"
"102","us_run_01","us_run_01_3","robot",2.61396666666667,"us",31,"male","yes_only","white","college_assocDegree","none","none","graphic designer",NA,22,"#e3d3af","remembering","remember things",0,1215,"yes",1,"us"
"103","us_run_01","us_run_01_3","robot",2.61396666666667,"us",31,"male","yes_only","white","college_assocDegree","none","none","graphic designer",NA,23,"#f0d27e","free_will","decide what to do",0,1201,"yes",1,"us"
"104","us_run_01","us_run_01_3","robot",2.61396666666667,"us",31,"male","yes_only","white","college_assocDegree","none","none","graphic designer",NA,24,"#c2e9f5","recognizing","recognize somebody else",0,2016,"yes",1,"us"
"105","us_run_01","us_run_01_3","robot",2.61396666666667,"us",31,"male","yes_only","white","college_assocDegree","none","none","graphic designer",NA,25,"#f2e1bc","personality","have a personality -- like when someone is shy and somebody else is silly",0,3667,"yes",1,"us"
"106","us_run_01","us_run_01_3","robot",2.61396666666667,"us",31,"male","yes_only","white","college_assocDegree","none","none","graphic designer",NA,26,"#fdcc93","intentions","make plans",0,1885,"yes",1,"us"
"107","us_run_01","us_run_01_3","robot",2.61396666666667,"us",31,"male","yes_only","white","college_assocDegree","none","none","graphic designer",NA,27,"#5ef2da","computations","do math",0,1330,"yes",1,"us"
"108","us_run_01","us_run_01_3","robot",2.61396666666667,"us",31,"male","yes_only","white","college_assocDegree","none","none","graphic designer",NA,28,"#e3df8e","joy","feel joy",0,1786,"no",0,"us"
"109","us_run_01","us_run_01_3","robot",2.61396666666667,"us",31,"male","yes_only","white","college_assocDegree","none","none","graphic designer",NA,29,"#cae5a1","thoughts","have thoughts",0,1402,"yes",1,"us"
"110","us_run_01","us_run_01_3","robot",2.61396666666667,"us",31,"male","yes_only","white","college_assocDegree","none","none","graphic designer",NA,30,"#bfd6fa","pleasure","feel pleasure -- like when something feels really good",0,2298,"no",0,"us"
"111","us_run_01","us_run_01_3","robot",2.61396666666667,"us",31,"male","yes_only","white","college_assocDegree","none","none","graphic designer",NA,31,"#aceab4","reasoning","figure out how to do things",0,3820,"yes",1,"us"
"112","us_run_01","us_run_01_3","robot",2.61396666666667,"us",31,"male","yes_only","white","college_assocDegree","none","none","graphic designer",NA,32,"#cde8e2","fear","feel scared",0,1538,"no",0,"us"
"113","us_run_01","us_run_01_3","robot",2.61396666666667,"us",31,"male","yes_only","white","college_assocDegree","none","none","graphic designer",NA,33,"#d1e48e","angry","get angry",0,1137,"no",0,"us"
"114","us_run_01","us_run_01_3","robot",2.61396666666667,"us",31,"male","yes_only","white","college_assocDegree","none","none","graphic designer",NA,34,"#e3dbc8","pride","feel proud",0,1056,"no",0,"us"
"115","us_run_01","us_run_01_3","robot",2.61396666666667,"us",31,"male","yes_only","white","college_assocDegree","none","none","graphic designer",NA,35,"#fddbd0","safe","feel safe",0,641,"no",0,"us"
"116","us_run_01","us_run_01_3","robot",2.61396666666667,"us",31,"male","yes_only","white","college_assocDegree","none","none","graphic designer",NA,36,"#d0d9ae","disrespected","get hurt feelings",0,1088,"no",0,"us"
"117","us_run_01","us_run_01_3","robot",2.61396666666667,"us",31,"male","yes_only","white","college_assocDegree","none","none","graphic designer",NA,37,"#97eca5","morality","know what's nice and what's mean",0,3636,"yes",1,"us"
"118","us_run_01","us_run_01_3","robot",2.61396666666667,"us",31,"male","yes_only","white","college_assocDegree","none","none","graphic designer",NA,38,"#94ebda","beliefs","have beliefs -- like when you think something is true",0,4750,"yes",1,"us"
"119","us_run_01","us_run_01_3","robot",2.61396666666667,"us",31,"male","yes_only","white","college_assocDegree","none","none","graphic designer",NA,39,"#ead1ec","tired","feel tired",0,2784,"yes",1,"us"
"120","us_run_01","us_run_01_3","robot",2.61396666666667,"us",31,"male","yes_only","white","college_assocDegree","none","none","graphic designer",NA,40,"#f2cdb9","happy","feel happy",0,1208,"no",0,"us"
"121","us_run_01","us_run_01_4","beetle",1.20965,"us",26,"male","yes_only","white","hs_diploma","none","none","sales associate",NA,1,"#b5eaa1","odors","smell things",0,2807,"yes",1,"united states"
"122","us_run_01","us_run_01_4","beetle",1.20965,"us",26,"male","yes_only","white","hs_diploma","none","none","sales associate",NA,2,"#5ef2da","angry","get angry",0,960,"yes",1,"united states"
"123","us_run_01","us_run_01_4","beetle",1.20965,"us",26,"male","yes_only","white","hs_diploma","none","none","sales associate",NA,3,"#fde096","self_aware","be aware of itself",0,952,"yes",1,"united states"
"124","us_run_01","us_run_01_4","beetle",1.20965,"us",26,"male","yes_only","white","hs_diploma","none","none","sales associate",NA,4,"#f0d27e","safe","feel safe",0,629,"yes",1,"united states"
"125","us_run_01","us_run_01_4","beetle",1.20965,"us",26,"male","yes_only","white","hs_diploma","none","none","sales associate",NA,5,"#dee7bc","guilt","feel guilty",0,612,"yes",1,"united states"
"126","us_run_01","us_run_01_4","beetle",1.20965,"us",26,"male","yes_only","white","hs_diploma","none","none","sales associate",NA,6,"#84eced","hungry","get hungry",0,844,"yes",1,"united states"
"127","us_run_01","us_run_01_4","beetle",1.20965,"us",26,"male","yes_only","white","hs_diploma","none","none","sales associate",NA,7,"#d5d0fa","love","feel love",0,1051,"yes",1,"united states"
"128","us_run_01","us_run_01_4","beetle",1.20965,"us",26,"male","yes_only","white","hs_diploma","none","none","sales associate",NA,8,"#bfd6fa","morality","know what's nice and what's mean",0,2711,"kinda",0.5,"united states"
"129","us_run_01","us_run_01_4","beetle",1.20965,"us",26,"male","yes_only","white","hs_diploma","none","none","sales associate",NA,9,"#97eca5","happy","feel happy",0,883,"yes",1,"united states"
"130","us_run_01","us_run_01_4","beetle",1.20965,"us",26,"male","yes_only","white","hs_diploma","none","none","sales associate",NA,10,"#f3c5fa","conscious","be aware of things",0,838,"yes",1,"united states"
"131","us_run_01","us_run_01_4","beetle",1.20965,"us",26,"male","yes_only","white","hs_diploma","none","none","sales associate",NA,11,"#f0d9a2","nauseated","feel sick -- like when you feel like you might throw up",0,1924,"yes",1,"united states"
"132","us_run_01","us_run_01_4","beetle",1.20965,"us",26,"male","yes_only","white","hs_diploma","none","none","sales associate",NA,12,"#bce98d","seeing","see things",0,813,"yes",1,"united states"
"133","us_run_01","us_run_01_4","beetle",1.20965,"us",26,"male","yes_only","white","hs_diploma","none","none","sales associate",NA,13,"#e3df8e","fear","feel scared",0,967,"yes",1,"united states"
"134","us_run_01","us_run_01_4","beetle",1.20965,"us",26,"male","yes_only","white","hs_diploma","none","none","sales associate",NA,14,"#f2e1bc","pride","feel proud",0,2522,"kinda",0.5,"united states"
"135","us_run_01","us_run_01_4","beetle",1.20965,"us",26,"male","yes_only","white","hs_diploma","none","none","sales associate",NA,15,"#aceab4","depth","sense whether something is close by or far away",0,1872,"yes",1,"united states"
"136","us_run_01","us_run_01_4","beetle",1.20965,"us",26,"male","yes_only","white","hs_diploma","none","none","sales associate",NA,16,"#64f8f4","embarrassed","feel embarrassed",0,1259,"yes",1,"united states"
"137","us_run_01","us_run_01_4","beetle",1.20965,"us",26,"male","yes_only","white","hs_diploma","none","none","sales associate",NA,17,"#bae6c8","personality","have a personality -- like when someone is shy and somebody else is silly",0,1786,"kinda",0.5,"united states"
"138","us_run_01","us_run_01_4","beetle",1.20965,"us",26,"male","yes_only","white","hs_diploma","none","none","sales associate",NA,18,"#fddbd0","tired","feel tired",0,1192,"yes",1,"united states"
"139","us_run_01","us_run_01_4","beetle",1.20965,"us",26,"male","yes_only","white","hs_diploma","none","none","sales associate",NA,19,"#d2dcee","remembering","remember things",0,884,"yes",1,"united states"
"140","us_run_01","us_run_01_4","beetle",1.20965,"us",26,"male","yes_only","white","hs_diploma","none","none","sales associate",NA,20,"#f3d0d9","temperature","sense temperatures",0,1048,"yes",1,"united states"
"141","us_run_01","us_run_01_4","beetle",1.20965,"us",26,"male","yes_only","white","hs_diploma","none","none","sales associate",NA,21,"#c3e5b5","calm","feel calm",0,1337,"yes",1,"united states"
"142","us_run_01","us_run_01_4","beetle",1.20965,"us",26,"male","yes_only","white","hs_diploma","none","none","sales associate",NA,22,"#3eeaef","depressed","feel sad",0,724,"yes",1,"united states"
"143","us_run_01","us_run_01_4","beetle",1.20965,"us",26,"male","yes_only","white","hs_diploma","none","none","sales associate",NA,23,"#f2cdb9","disrespected","get hurt feelings",0,1806,"no",0,"united states"
"144","us_run_01","us_run_01_4","beetle",1.20965,"us",26,"male","yes_only","white","hs_diploma","none","none","sales associate",NA,24,"#9be4c0","desires","have desires -- like when you really want something",0,1694,"yes",1,"united states"
"145","us_run_01","us_run_01_4","beetle",1.20965,"us",26,"male","yes_only","white","hs_diploma","none","none","sales associate",NA,25,"#b4dbe7","reasoning","figure out how to do things",0,2767,"yes",1,"united states"
"146","us_run_01","us_run_01_4","beetle",1.20965,"us",26,"male","yes_only","white","hs_diploma","none","none","sales associate",NA,26,"#cae5a1","choices","make choices",0,585,"yes",1,"united states"
"147","us_run_01","us_run_01_4","beetle",1.20965,"us",26,"male","yes_only","white","hs_diploma","none","none","sales associate",NA,27,"#d0e0c8","pain","feel pain",0,470,"yes",1,"united states"
"148","us_run_01","us_run_01_4","beetle",1.20965,"us",26,"male","yes_only","white","hs_diploma","none","none","sales associate",NA,28,"#a7dcf9","self_restraint","have self-control -- like when you stop yourself from doing something you shouldn't do",0,973,"yes",1,"united states"
"149","us_run_01","us_run_01_4","beetle",1.20965,"us",26,"male","yes_only","white","hs_diploma","none","none","sales associate",NA,29,"#d0d9ae","computations","do math",0,718,"yes",1,"united states"
"150","us_run_01","us_run_01_4","beetle",1.20965,"us",26,"male","yes_only","white","hs_diploma","none","none","sales associate",NA,30,"#c2e9f5","recognizing","recognize somebody else",0,770,"yes",1,"united states"
"151","us_run_01","us_run_01_4","beetle",1.20965,"us",26,"male","yes_only","white","hs_diploma","none","none","sales associate",NA,31,"#8cf2c3","communicating","communicate with somebody else",0,766,"yes",1,"united states"
"152","us_run_01","us_run_01_4","beetle",1.20965,"us",26,"male","yes_only","white","hs_diploma","none","none","sales associate",NA,32,"#79e3f9","joy","feel joy",0,498,"yes",1,"united states"
"153","us_run_01","us_run_01_4","beetle",1.20965,"us",26,"male","yes_only","white","hs_diploma","none","none","sales associate",NA,33,"#e3d3af","emo_recog","understand how somebody else is feeling",0,1073,"yes",1,"united states"
"154","us_run_01","us_run_01_4","beetle",1.20965,"us",26,"male","yes_only","white","hs_diploma","none","none","sales associate",NA,34,"#ead1ec","sounds","hear sounds",0,524,"yes",1,"united states"
"155","us_run_01","us_run_01_4","beetle",1.20965,"us",26,"male","yes_only","white","hs_diploma","none","none","sales associate",NA,35,"#d1e48e","goal","have goals -- like when you're working hard to do something or make something happen",0,1383,"yes",1,"united states"
"156","us_run_01","us_run_01_4","beetle",1.20965,"us",26,"male","yes_only","white","hs_diploma","none","none","sales associate",NA,36,"#e3dbc8","pleasure","feel pleasure -- like when something feels really good",0,810,"yes",1,"united states"
"157","us_run_01","us_run_01_4","beetle",1.20965,"us",26,"male","yes_only","white","hs_diploma","none","none","sales associate",NA,37,"#94ebda","thoughts","have thoughts",0,549,"yes",1,"united states"
"158","us_run_01","us_run_01_4","beetle",1.20965,"us",26,"male","yes_only","white","hs_diploma","none","none","sales associate",NA,38,"#cde8e2","beliefs","have beliefs -- like when you think something is true",0,1455,"yes",1,"united states"
"159","us_run_01","us_run_01_4","beetle",1.20965,"us",26,"male","yes_only","white","hs_diploma","none","none","sales associate",NA,39,"#a9e7e4","intentions","make plans",0,600,"yes",1,"united states"
"160","us_run_01","us_run_01_4","beetle",1.20965,"us",26,"male","yes_only","white","hs_diploma","none","none","sales associate",NA,40,"#dedfa2","free_will","decide what to do",0,580,"yes",1,"united states"
"161","us_run_01","us_run_01_5","beetle",1.81918333333333,"us",40,"male","yes_only","white","college_assocDegree","christianity_catholic","christianity_catholic","hvac manager",NA,1,"#64f8f4","pride","feel proud",0,1757,"no",0,"USA"
"162","us_run_01","us_run_01_5","beetle",1.81918333333333,"us",40,"male","yes_only","white","college_assocDegree","christianity_catholic","christianity_catholic","hvac manager",NA,2,"#e3df8e","safe","feel safe",0,1533,"no",0,"USA"
"163","us_run_01","us_run_01_5","beetle",1.81918333333333,"us",40,"male","yes_only","white","college_assocDegree","christianity_catholic","christianity_catholic","hvac manager",NA,3,"#94ebda","reasoning","figure out how to do things",0,2102,"no",0,"USA"
"164","us_run_01","us_run_01_5","beetle",1.81918333333333,"us",40,"male","yes_only","white","college_assocDegree","christianity_catholic","christianity_catholic","hvac manager",NA,4,"#f0d27e","happy","feel happy",0,1142,"no",0,"USA"
"165","us_run_01","us_run_01_5","beetle",1.81918333333333,"us",40,"male","yes_only","white","college_assocDegree","christianity_catholic","christianity_catholic","hvac manager",NA,5,"#c2e9f5","angry","get angry",0,1047,"no",0,"USA"
"166","us_run_01","us_run_01_5","beetle",1.81918333333333,"us",40,"male","yes_only","white","college_assocDegree","christianity_catholic","christianity_catholic","hvac manager",NA,6,"#f0d9a2","temperature","sense temperatures",0,2853,"kinda",0.5,"USA"
"167","us_run_01","us_run_01_5","beetle",1.81918333333333,"us",40,"male","yes_only","white","college_assocDegree","christianity_catholic","christianity_catholic","hvac manager",NA,7,"#9be4c0","beliefs","have beliefs -- like when you think something is true",0,1446,"no",0,"USA"
"168","us_run_01","us_run_01_5","beetle",1.81918333333333,"us",40,"male","yes_only","white","college_assocDegree","christianity_catholic","christianity_catholic","hvac manager",NA,8,"#a7dcf9","self_aware","be aware of itself",0,1973,"no",0,"USA"
"169","us_run_01","us_run_01_5","beetle",1.81918333333333,"us",40,"male","yes_only","white","college_assocDegree","christianity_catholic","christianity_catholic","hvac manager",NA,9,"#8cf2c3","hungry","get hungry",0,1407,"yes",1,"USA"
"170","us_run_01","us_run_01_5","beetle",1.81918333333333,"us",40,"male","yes_only","white","college_assocDegree","christianity_catholic","christianity_catholic","hvac manager",NA,10,"#f3d0d9","depth","sense whether something is close by or far away",0,4368,"yes",1,"USA"
"171","us_run_01","us_run_01_5","beetle",1.81918333333333,"us",40,"male","yes_only","white","college_assocDegree","christianity_catholic","christianity_catholic","hvac manager",NA,11,"#3eeaef","pleasure","feel pleasure -- like when something feels really good",0,1709,"no",0,"USA"
"172","us_run_01","us_run_01_5","beetle",1.81918333333333,"us",40,"male","yes_only","white","college_assocDegree","christianity_catholic","christianity_catholic","hvac manager",NA,12,"#a9f2ce","disrespected","get hurt feelings",0,1383,"no",0,"USA"
"173","us_run_01","us_run_01_5","beetle",1.81918333333333,"us",40,"male","yes_only","white","college_assocDegree","christianity_catholic","christianity_catholic","hvac manager",NA,13,"#dedfa2","morality","know what's nice and what's mean",0,1526,"no",0,"USA"
"174","us_run_01","us_run_01_5","beetle",1.81918333333333,"us",40,"male","yes_only","white","college_assocDegree","christianity_catholic","christianity_catholic","hvac manager",NA,14,"#d5d0fa","tired","feel tired",0,2814,"yes",1,"USA"
"175","us_run_01","us_run_01_5","beetle",1.81918333333333,"us",40,"male","yes_only","white","college_assocDegree","christianity_catholic","christianity_catholic","hvac manager",NA,15,"#97eca5","computations","do math",0,1102,"no",0,"USA"
"176","us_run_01","us_run_01_5","beetle",1.81918333333333,"us",40,"male","yes_only","white","college_assocDegree","christianity_catholic","christianity_catholic","hvac manager",NA,16,"#c3e5b5","thoughts","have thoughts",0,1918,"kinda",0.5,"USA"
"177","us_run_01","us_run_01_5","beetle",1.81918333333333,"us",40,"male","yes_only","white","college_assocDegree","christianity_catholic","christianity_catholic","hvac manager",NA,17,"#dee7bc","remembering","remember things",0,1374,"kinda",0.5,"USA"
"178","us_run_01","us_run_01_5","beetle",1.81918333333333,"us",40,"male","yes_only","white","college_assocDegree","christianity_catholic","christianity_catholic","hvac manager",NA,18,"#ead1ec","joy","feel joy",0,1069,"no",0,"USA"
"179","us_run_01","us_run_01_5","beetle",1.81918333333333,"us",40,"male","yes_only","white","college_assocDegree","christianity_catholic","christianity_catholic","hvac manager",NA,19,"#fdcc93","depressed","feel sad",0,727,"no",0,"USA"
"180","us_run_01","us_run_01_5","beetle",1.81918333333333,"us",40,"male","yes_only","white","college_assocDegree","christianity_catholic","christianity_catholic","hvac manager",NA,20,"#84eced","free_will","decide what to do",0,1550,"kinda",0.5,"USA"
"181","us_run_01","us_run_01_5","beetle",1.81918333333333,"us",40,"male","yes_only","white","college_assocDegree","christianity_catholic","christianity_catholic","hvac manager",NA,21,"#f3c5fa","fear","feel scared",0,3318,"kinda",0.5,"USA"
"182","us_run_01","us_run_01_5","beetle",1.81918333333333,"us",40,"male","yes_only","white","college_assocDegree","christianity_catholic","christianity_catholic","hvac manager",NA,22,"#d0e0c8","nauseated","feel sick -- like when you feel like you might throw up",0,2253,"kinda",0.5,"USA"
"183","us_run_01","us_run_01_5","beetle",1.81918333333333,"us",40,"male","yes_only","white","college_assocDegree","christianity_catholic","christianity_catholic","hvac manager",NA,23,"#bae6c8","guilt","feel guilty",0,1071,"no",0,"USA"
"184","us_run_01","us_run_01_5","beetle",1.81918333333333,"us",40,"male","yes_only","white","college_assocDegree","christianity_catholic","christianity_catholic","hvac manager",NA,24,"#aceab4","love","feel love",0,703,"no",0,"USA"
"185","us_run_01","us_run_01_5","beetle",1.81918333333333,"us",40,"male","yes_only","white","college_assocDegree","christianity_catholic","christianity_catholic","hvac manager",NA,25,"#b4dbe7","recognizing","recognize somebody else",0,1295,"no",0,"USA"
"186","us_run_01","us_run_01_5","beetle",1.81918333333333,"us",40,"male","yes_only","white","college_assocDegree","christianity_catholic","christianity_catholic","hvac manager",NA,26,"#fde096","choices","make choices",0,2750,"yes",1,"USA"
"187","us_run_01","us_run_01_5","beetle",1.81918333333333,"us",40,"male","yes_only","white","college_assocDegree","christianity_catholic","christianity_catholic","hvac manager",NA,27,"#f2e1bc","sounds","hear sounds",0,1550,"yes",1,"USA"
"188","us_run_01","us_run_01_5","beetle",1.81918333333333,"us",40,"male","yes_only","white","college_assocDegree","christianity_catholic","christianity_catholic","hvac manager",NA,28,"#cde8e2","conscious","be aware of things",0,2263,"yes",1,"USA"
"189","us_run_01","us_run_01_5","beetle",1.81918333333333,"us",40,"male","yes_only","white","college_assocDegree","christianity_catholic","christianity_catholic","hvac manager",NA,29,"#a9e7e4","seeing","see things",0,1389,"yes",1,"USA"
"190","us_run_01","us_run_01_5","beetle",1.81918333333333,"us",40,"male","yes_only","white","college_assocDegree","christianity_catholic","christianity_catholic","hvac manager",NA,30,"#5ef2da","personality","have a personality -- like when someone is shy and somebody else is silly",0,1902,"no",0,"USA"
"191","us_run_01","us_run_01_5","beetle",1.81918333333333,"us",40,"male","yes_only","white","college_assocDegree","christianity_catholic","christianity_catholic","hvac manager",NA,31,"#bfd6fa","emo_recog","understand how somebody else is feeling",0,2062,"no",0,"USA"
"192","us_run_01","us_run_01_5","beetle",1.81918333333333,"us",40,"male","yes_only","white","college_assocDegree","christianity_catholic","christianity_catholic","hvac manager",NA,32,"#fddbd0","desires","have desires -- like when you really want something",0,2694,"kinda",0.5,"USA"
"193","us_run_01","us_run_01_5","beetle",1.81918333333333,"us",40,"male","yes_only","white","college_assocDegree","christianity_catholic","christianity_catholic","hvac manager",NA,33,"#e3d3af","odors","smell things",0,1463,"kinda",0.5,"USA"
"194","us_run_01","us_run_01_5","beetle",1.81918333333333,"us",40,"male","yes_only","white","college_assocDegree","christianity_catholic","christianity_catholic","hvac manager",NA,34,"#d1e48e","goal","have goals -- like when you're working hard to do something or make something happen",0,5407,"kinda",0.5,"USA"
"195","us_run_01","us_run_01_5","beetle",1.81918333333333,"us",40,"male","yes_only","white","college_assocDegree","christianity_catholic","christianity_catholic","hvac manager",NA,35,"#79e3f9","self_restraint","have self-control -- like when you stop yourself from doing something you shouldn't do",0,2040,"no",0,"USA"
"196","us_run_01","us_run_01_5","beetle",1.81918333333333,"us",40,"male","yes_only","white","college_assocDegree","christianity_catholic","christianity_catholic","hvac manager",NA,36,"#bce98d","embarrassed","feel embarrassed",0,886,"no",0,"USA"
"197","us_run_01","us_run_01_5","beetle",1.81918333333333,"us",40,"male","yes_only","white","college_assocDegree","christianity_catholic","christianity_catholic","hvac manager",NA,37,"#d2dcee","intentions","make plans",0,1022,"no",0,"USA"
"198","us_run_01","us_run_01_5","beetle",1.81918333333333,"us",40,"male","yes_only","white","college_assocDegree","christianity_catholic","christianity_catholic","hvac manager",NA,38,"#f2cdb9","communicating","communicate with somebody else",0,2191,"no",0,"USA"
"199","us_run_01","us_run_01_5","beetle",1.81918333333333,"us",40,"male","yes_only","white","college_assocDegree","christianity_catholic","christianity_catholic","hvac manager",NA,39,"#d0d9ae","pain","feel pain",0,3638,"kinda",0.5,"USA"
"200","us_run_01","us_run_01_5","beetle",1.81918333333333,"us",40,"male","yes_only","white","college_assocDegree","christianity_catholic","christianity_catholic","hvac manager",NA,40,"#e3dbc8","calm","feel calm",0,1113,"no",0,"USA"
"201","us_run_01","us_run_01_6","robot",2.25301666666667,"us",26,"male","yes_multiple","hispanicLatino","college_bachDegree","none","none","Self Employed","None",1,"#f0d27e","self_restraint","have self-control -- like when you stop yourself from doing something you shouldn't do",0,5282,"no",0,"USA"
"202","us_run_01","us_run_01_6","robot",2.25301666666667,"us",26,"male","yes_multiple","hispanicLatino","college_bachDegree","none","none","Self Employed","None",2,"#dedfa2","self_aware","be aware of itself",0,1060,"no",0,"USA"
"203","us_run_01","us_run_01_6","robot",2.25301666666667,"us",26,"male","yes_multiple","hispanicLatino","college_bachDegree","none","none","Self Employed","None",3,"#dee7bc","joy","feel joy",0,852,"no",0,"USA"
"204","us_run_01","us_run_01_6","robot",2.25301666666667,"us",26,"male","yes_multiple","hispanicLatino","college_bachDegree","none","none","Self Employed","None",4,"#fddbd0","depth","sense whether something is close by or far away",0,2792,"yes",1,"USA"
"205","us_run_01","us_run_01_6","robot",2.25301666666667,"us",26,"male","yes_multiple","hispanicLatino","college_bachDegree","none","none","Self Employed","None",5,"#e3df8e","reasoning","figure out how to do things",0,1946,"yes",1,"USA"
"206","us_run_01","us_run_01_6","robot",2.25301666666667,"us",26,"male","yes_multiple","hispanicLatino","college_bachDegree","none","none","Self Employed","None",6,"#a9e7e4","desires","have desires -- like when you really want something",0,1986,"no",0,"USA"
"207","us_run_01","us_run_01_6","robot",2.25301666666667,"us",26,"male","yes_multiple","hispanicLatino","college_bachDegree","none","none","Self Employed","None",7,"#bae6c8","recognizing","recognize somebody else",0,2090,"kinda",0.5,"USA"
"208","us_run_01","us_run_01_6","robot",2.25301666666667,"us",26,"male","yes_multiple","hispanicLatino","college_bachDegree","none","none","Self Employed","None",8,"#e3d3af","happy","feel happy",0,1093,"no",0,"USA"
"209","us_run_01","us_run_01_6","robot",2.25301666666667,"us",26,"male","yes_multiple","hispanicLatino","college_bachDegree","none","none","Self Employed","None",9,"#c2e9f5","thoughts","have thoughts",0,1058,"no",0,"USA"
"210","us_run_01","us_run_01_6","robot",2.25301666666667,"us",26,"male","yes_multiple","hispanicLatino","college_bachDegree","none","none","Self Employed","None",10,"#9be4c0","morality","know what's nice and what's mean",0,2130,"no",0,"USA"
"211","us_run_01","us_run_01_6","robot",2.25301666666667,"us",26,"male","yes_multiple","hispanicLatino","college_bachDegree","none","none","Self Employed","None",11,"#b4dbe7","love","feel love",0,965,"no",0,"USA"
"212","us_run_01","us_run_01_6","robot",2.25301666666667,"us",26,"male","yes_multiple","hispanicLatino","college_bachDegree","none","none","Self Employed","None",12,"#bfd6fa","computations","do math",0,913,"no",0,"USA"
"213","us_run_01","us_run_01_6","robot",2.25301666666667,"us",26,"male","yes_multiple","hispanicLatino","college_bachDegree","none","none","Self Employed","None",13,"#bce98d","tired","feel tired",0,2407,"no",0,"USA"
"214","us_run_01","us_run_01_6","robot",2.25301666666667,"us",26,"male","yes_multiple","hispanicLatino","college_bachDegree","none","none","Self Employed","None",14,"#ead1ec","choices","make choices",0,2317,"kinda",0.5,"USA"
"215","us_run_01","us_run_01_6","robot",2.25301666666667,"us",26,"male","yes_multiple","hispanicLatino","college_bachDegree","none","none","Self Employed","None",15,"#d5d0fa","guilt","feel guilty",0,2211,"no",0,"USA"
"216","us_run_01","us_run_01_6","robot",2.25301666666667,"us",26,"male","yes_multiple","hispanicLatino","college_bachDegree","none","none","Self Employed","None",16,"#f2e1bc","goal","have goals -- like when you're working hard to do something or make something happen",0,1776,"no",0,"USA"
"217","us_run_01","us_run_01_6","robot",2.25301666666667,"us",26,"male","yes_multiple","hispanicLatino","college_bachDegree","none","none","Self Employed","None",17,"#e3dbc8","temperature","sense temperatures",0,1795,"yes",1,"USA"
"218","us_run_01","us_run_01_6","robot",2.25301666666667,"us",26,"male","yes_multiple","hispanicLatino","college_bachDegree","none","none","Self Employed","None",18,"#5ef2da","remembering","remember things",0,2202,"yes",1,"USA"
"219","us_run_01","us_run_01_6","robot",2.25301666666667,"us",26,"male","yes_multiple","hispanicLatino","college_bachDegree","none","none","Self Employed","None",19,"#8cf2c3","depressed","feel sad",0,1055,"no",0,"USA"
"220","us_run_01","us_run_01_6","robot",2.25301666666667,"us",26,"male","yes_multiple","hispanicLatino","college_bachDegree","none","none","Self Employed","None",20,"#d0e0c8","hungry","get hungry",0,1503,"no",0,"USA"
"221","us_run_01","us_run_01_6","robot",2.25301666666667,"us",26,"male","yes_multiple","hispanicLatino","college_bachDegree","none","none","Self Employed","None",21,"#a7dcf9","odors","smell things",0,2347,"kinda",0.5,"USA"
"222","us_run_01","us_run_01_6","robot",2.25301666666667,"us",26,"male","yes_multiple","hispanicLatino","college_bachDegree","none","none","Self Employed","None",22,"#cae5a1","pride","feel proud",0,871,"no",0,"USA"
"223","us_run_01","us_run_01_6","robot",2.25301666666667,"us",26,"male","yes_multiple","hispanicLatino","college_bachDegree","none","none","Self Employed","None",23,"#f3c5fa","fear","feel scared",0,1155,"no",0,"USA"
"224","us_run_01","us_run_01_6","robot",2.25301666666667,"us",26,"male","yes_multiple","hispanicLatino","college_bachDegree","none","none","Self Employed","None",24,"#f3d0d9","embarrassed","feel embarrassed",0,601,"no",0,"USA"
"225","us_run_01","us_run_01_6","robot",2.25301666666667,"us",26,"male","yes_multiple","hispanicLatino","college_bachDegree","none","none","Self Employed","None",25,"#84eced","calm","feel calm",0,693,"no",0,"USA"
"226","us_run_01","us_run_01_6","robot",2.25301666666667,"us",26,"male","yes_multiple","hispanicLatino","college_bachDegree","none","none","Self Employed","None",26,"#f0d9a2","nauseated","feel sick -- like when you feel like you might throw up",0,1103,"no",0,"USA"
"227","us_run_01","us_run_01_6","robot",2.25301666666667,"us",26,"male","yes_multiple","hispanicLatino","college_bachDegree","none","none","Self Employed","None",27,"#64f8f4","disrespected","get hurt feelings",0,1109,"no",0,"USA"
"228","us_run_01","us_run_01_6","robot",2.25301666666667,"us",26,"male","yes_multiple","hispanicLatino","college_bachDegree","none","none","Self Employed","None",28,"#d1e48e","safe","feel safe",0,1575,"no",0,"USA"
"229","us_run_01","us_run_01_6","robot",2.25301666666667,"us",26,"male","yes_multiple","hispanicLatino","college_bachDegree","none","none","Self Employed","None",29,"#b5eaa1","pleasure","feel pleasure -- like when something feels really good",0,1303,"no",0,"USA"
"230","us_run_01","us_run_01_6","robot",2.25301666666667,"us",26,"male","yes_multiple","hispanicLatino","college_bachDegree","none","none","Self Employed","None",30,"#97eca5","conscious","be aware of things",0,1639,"yes",1,"USA"
"231","us_run_01","us_run_01_6","robot",2.25301666666667,"us",26,"male","yes_multiple","hispanicLatino","college_bachDegree","none","none","Self Employed","None",31,"#cde8e2","free_will","decide what to do",0,1827,"kinda",0.5,"USA"
"232","us_run_01","us_run_01_6","robot",2.25301666666667,"us",26,"male","yes_multiple","hispanicLatino","college_bachDegree","none","none","Self Employed","None",32,"#d0d9ae","emo_recog","understand how somebody else is feeling",0,2466,"kinda",0.5,"USA"
"233","us_run_01","us_run_01_6","robot",2.25301666666667,"us",26,"male","yes_multiple","hispanicLatino","college_bachDegree","none","none","Self Employed","None",33,"#fdcc93","beliefs","have beliefs -- like when you think something is true",0,1472,"no",0,"USA"
"234","us_run_01","us_run_01_6","robot",2.25301666666667,"us",26,"male","yes_multiple","hispanicLatino","college_bachDegree","none","none","Self Employed","None",34,"#c3e5b5","personality","have a personality -- like when someone is shy and somebody else is silly",0,2427,"kinda",0.5,"USA"
"235","us_run_01","us_run_01_6","robot",2.25301666666667,"us",26,"male","yes_multiple","hispanicLatino","college_bachDegree","none","none","Self Employed","None",35,"#d2dcee","intentions","make plans",0,1866,"no",0,"USA"
"236","us_run_01","us_run_01_6","robot",2.25301666666667,"us",26,"male","yes_multiple","hispanicLatino","college_bachDegree","none","none","Self Employed","None",36,"#79e3f9","seeing","see things",0,1327,"yes",1,"USA"
"237","us_run_01","us_run_01_6","robot",2.25301666666667,"us",26,"male","yes_multiple","hispanicLatino","college_bachDegree","none","none","Self Employed","None",37,"#3eeaef","angry","get angry",0,1056,"no",0,"USA"
"238","us_run_01","us_run_01_6","robot",2.25301666666667,"us",26,"male","yes_multiple","hispanicLatino","college_bachDegree","none","none","Self Employed","None",38,"#a9f2ce","sounds","hear sounds",0,1111,"yes",1,"USA"
"239","us_run_01","us_run_01_6","robot",2.25301666666667,"us",26,"male","yes_multiple","hispanicLatino","college_bachDegree","none","none","Self Employed","None",39,"#94ebda","pain","feel pain",0,1027,"no",0,"USA"
"240","us_run_01","us_run_01_6","robot",2.25301666666667,"us",26,"male","yes_multiple","hispanicLatino","college_bachDegree","none","none","Self Employed","None",40,"#fde096","communicating","communicate with somebody else",0,1868,"yes",1,"USA"
"241","us_run_01","us_run_01_7","robot",0.916016666666667,"us",23,"male","yes_only","white","college_bachDegree","none","none","Researcher",NA,1,"#f3d0d9","calm","feel calm",0,1898,"no",0,"United States"
"242","us_run_01","us_run_01_7","robot",0.916016666666667,"us",23,"male","yes_only","white","college_bachDegree","none","none","Researcher",NA,2,"#3eeaef","computations","do math",0,539,"no",0,"United States"
"243","us_run_01","us_run_01_7","robot",0.916016666666667,"us",23,"male","yes_only","white","college_bachDegree","none","none","Researcher",NA,3,"#fddbd0","morality","know what's nice and what's mean",0,957,"no",0,"United States"
"244","us_run_01","us_run_01_7","robot",0.916016666666667,"us",23,"male","yes_only","white","college_bachDegree","none","none","Researcher",NA,4,"#d1e48e","angry","get angry",0,679,"no",0,"United States"
"245","us_run_01","us_run_01_7","robot",0.916016666666667,"us",23,"male","yes_only","white","college_bachDegree","none","none","Researcher",NA,5,"#84eced","remembering","remember things",0,875,"no",0,"United States"
"246","us_run_01","us_run_01_7","robot",0.916016666666667,"us",23,"male","yes_only","white","college_bachDegree","none","none","Researcher",NA,6,"#5ef2da","nauseated","feel sick -- like when you feel like you might throw up",0,840,"no",0,"United States"
"247","us_run_01","us_run_01_7","robot",0.916016666666667,"us",23,"male","yes_only","white","college_bachDegree","none","none","Researcher",NA,7,"#b4dbe7","conscious","be aware of things",0,984,"no",0,"United States"
"248","us_run_01","us_run_01_7","robot",0.916016666666667,"us",23,"male","yes_only","white","college_bachDegree","none","none","Researcher",NA,8,"#f0d9a2","desires","have desires -- like when you really want something",0,879,"no",0,"United States"
"249","us_run_01","us_run_01_7","robot",0.916016666666667,"us",23,"male","yes_only","white","college_bachDegree","none","none","Researcher",NA,9,"#dedfa2","communicating","communicate with somebody else",0,627,"no",0,"United States"
"250","us_run_01","us_run_01_7","robot",0.916016666666667,"us",23,"male","yes_only","white","college_bachDegree","none","none","Researcher",NA,10,"#a7dcf9","sounds","hear sounds",0,674,"no",0,"United States"
"251","us_run_01","us_run_01_7","robot",0.916016666666667,"us",23,"male","yes_only","white","college_bachDegree","none","none","Researcher",NA,11,"#d2dcee","intentions","make plans",0,699,"no",0,"United States"
"252","us_run_01","us_run_01_7","robot",0.916016666666667,"us",23,"male","yes_only","white","college_bachDegree","none","none","Researcher",NA,12,"#aceab4","disrespected","get hurt feelings",0,690,"no",0,"United States"
"253","us_run_01","us_run_01_7","robot",0.916016666666667,"us",23,"male","yes_only","white","college_bachDegree","none","none","Researcher",NA,13,"#e3d3af","pleasure","feel pleasure -- like when something feels really good",0,811,"no",0,"United States"
"254","us_run_01","us_run_01_7","robot",0.916016666666667,"us",23,"male","yes_only","white","college_bachDegree","none","none","Researcher",NA,14,"#94ebda","odors","smell things",0,694,"no",0,"United States"
"255","us_run_01","us_run_01_7","robot",0.916016666666667,"us",23,"male","yes_only","white","college_bachDegree","none","none","Researcher",NA,15,"#f0d27e","beliefs","have beliefs -- like when you think something is true",0,878,"no",0,"United States"
"256","us_run_01","us_run_01_7","robot",0.916016666666667,"us",23,"male","yes_only","white","college_bachDegree","none","none","Researcher",NA,16,"#e3dbc8","joy","feel joy",0,659,"no",0,"United States"
"257","us_run_01","us_run_01_7","robot",0.916016666666667,"us",23,"male","yes_only","white","college_bachDegree","none","none","Researcher",NA,17,"#bae6c8","seeing","see things",0,646,"no",0,"United States"
"258","us_run_01","us_run_01_7","robot",0.916016666666667,"us",23,"male","yes_only","white","college_bachDegree","none","none","Researcher",NA,18,"#dee7bc","goal","have goals -- like when you're working hard to do something or make something happen",0,996,"no",0,"United States"
"259","us_run_01","us_run_01_7","robot",0.916016666666667,"us",23,"male","yes_only","white","college_bachDegree","none","none","Researcher",NA,19,"#f2cdb9","personality","have a personality -- like when someone is shy and somebody else is silly",0,971,"no",0,"United States"
"260","us_run_01","us_run_01_7","robot",0.916016666666667,"us",23,"male","yes_only","white","college_bachDegree","none","none","Researcher",NA,20,"#d0e0c8","self_aware","be aware of itself",0,804,"no",0,"United States"
"261","us_run_01","us_run_01_7","robot",0.916016666666667,"us",23,"male","yes_only","white","college_bachDegree","none","none","Researcher",NA,21,"#8cf2c3","depth","sense whether something is close by or far away",0,828,"no",0,"United States"
"262","us_run_01","us_run_01_7","robot",0.916016666666667,"us",23,"male","yes_only","white","college_bachDegree","none","none","Researcher",NA,22,"#cde8e2","thoughts","have thoughts",0,819,"no",0,"United States"
"263","us_run_01","us_run_01_7","robot",0.916016666666667,"us",23,"male","yes_only","white","college_bachDegree","none","none","Researcher",NA,23,"#c2e9f5","temperature","sense temperatures",0,723,"no",0,"United States"
"264","us_run_01","us_run_01_7","robot",0.916016666666667,"us",23,"male","yes_only","white","college_bachDegree","none","none","Researcher",NA,24,"#d0d9ae","embarrassed","feel embarrassed",0,693,"no",0,"United States"
"265","us_run_01","us_run_01_7","robot",0.916016666666667,"us",23,"male","yes_only","white","college_bachDegree","none","none","Researcher",NA,25,"#b5eaa1","pain","feel pain",0,751,"no",0,"United States"
"266","us_run_01","us_run_01_7","robot",0.916016666666667,"us",23,"male","yes_only","white","college_bachDegree","none","none","Researcher",NA,26,"#64f8f4","free_will","decide what to do",0,885,"no",0,"United States"
"267","us_run_01","us_run_01_7","robot",0.916016666666667,"us",23,"male","yes_only","white","college_bachDegree","none","none","Researcher",NA,27,"#79e3f9","depressed","feel sad",0,634,"no",0,"United States"
"268","us_run_01","us_run_01_7","robot",0.916016666666667,"us",23,"male","yes_only","white","college_bachDegree","none","none","Researcher",NA,28,"#f2e1bc","recognizing","recognize somebody else",0,849,"no",0,"United States"
"269","us_run_01","us_run_01_7","robot",0.916016666666667,"us",23,"male","yes_only","white","college_bachDegree","none","none","Researcher",NA,29,"#fdcc93","emo_recog","understand how somebody else is feeling",0,876,"no",0,"United States"
"270","us_run_01","us_run_01_7","robot",0.916016666666667,"us",23,"male","yes_only","white","college_bachDegree","none","none","Researcher",NA,30,"#f3c5fa","tired","feel tired",0,707,"no",0,"United States"
"271","us_run_01","us_run_01_7","robot",0.916016666666667,"us",23,"male","yes_only","white","college_bachDegree","none","none","Researcher",NA,31,"#fde096","choices","make choices",0,1244,"yes",1,"United States"
"272","us_run_01","us_run_01_7","robot",0.916016666666667,"us",23,"male","yes_only","white","college_bachDegree","none","none","Researcher",NA,32,"#ead1ec","happy","feel happy",0,667,"no",0,"United States"
"273","us_run_01","us_run_01_7","robot",0.916016666666667,"us",23,"male","yes_only","white","college_bachDegree","none","none","Researcher",NA,33,"#e3df8e","pride","feel proud",0,610,"no",0,"United States"
"274","us_run_01","us_run_01_7","robot",0.916016666666667,"us",23,"male","yes_only","white","college_bachDegree","none","none","Researcher",NA,34,"#a9f2ce","love","feel love",0,600,"no",0,"United States"
"275","us_run_01","us_run_01_7","robot",0.916016666666667,"us",23,"male","yes_only","white","college_bachDegree","none","none","Researcher",NA,35,"#bfd6fa","hungry","get hungry",0,626,"no",0,"United States"
"276","us_run_01","us_run_01_7","robot",0.916016666666667,"us",23,"male","yes_only","white","college_bachDegree","none","none","Researcher",NA,36,"#c3e5b5","self_restraint","have self-control -- like when you stop yourself from doing something you shouldn't do",0,1715,"no",0,"United States"
"277","us_run_01","us_run_01_7","robot",0.916016666666667,"us",23,"male","yes_only","white","college_bachDegree","none","none","Researcher",NA,37,"#cae5a1","fear","feel scared",0,643,"no",0,"United States"
"278","us_run_01","us_run_01_7","robot",0.916016666666667,"us",23,"male","yes_only","white","college_bachDegree","none","none","Researcher",NA,38,"#bce98d","guilt","feel guilty",0,628,"no",0,"United States"
"279","us_run_01","us_run_01_7","robot",0.916016666666667,"us",23,"male","yes_only","white","college_bachDegree","none","none","Researcher",NA,39,"#9be4c0","reasoning","figure out how to do things",0,613,"no",0,"United States"
"280","us_run_01","us_run_01_7","robot",0.916016666666667,"us",23,"male","yes_only","white","college_bachDegree","none","none","Researcher",NA,40,"#97eca5","safe","feel safe",0,658,"no",0,"United States"
"281","us_run_01","us_run_01_8","beetle",2.59561666666667,"us",59,"female","yes_only","white","grad_degree","christianity_protestant","christianity_protestant","teacher",NA,1,"#fde096","joy","feel joy",0,5290,"yes",1,"United States"
"282","us_run_01","us_run_01_8","beetle",2.59561666666667,"us",59,"female","yes_only","white","grad_degree","christianity_protestant","christianity_protestant","teacher",NA,2,"#94ebda","happy","feel happy",0,1411,"yes",1,"United States"
"283","us_run_01","us_run_01_8","beetle",2.59561666666667,"us",59,"female","yes_only","white","grad_degree","christianity_protestant","christianity_protestant","teacher",NA,3,"#bce98d","nauseated","feel sick -- like when you feel like you might throw up",0,3588,"yes",1,"United States"
"284","us_run_01","us_run_01_8","beetle",2.59561666666667,"us",59,"female","yes_only","white","grad_degree","christianity_protestant","christianity_protestant","teacher",NA,4,"#a9e7e4","pain","feel pain",0,1972,"yes",1,"United States"
"285","us_run_01","us_run_01_8","beetle",2.59561666666667,"us",59,"female","yes_only","white","grad_degree","christianity_protestant","christianity_protestant","teacher",NA,5,"#dedfa2","free_will","decide what to do",0,2539,"yes",1,"United States"
"286","us_run_01","us_run_01_8","beetle",2.59561666666667,"us",59,"female","yes_only","white","grad_degree","christianity_protestant","christianity_protestant","teacher",NA,6,"#f2cdb9","thoughts","have thoughts",0,1596,"yes",1,"United States"
"287","us_run_01","us_run_01_8","beetle",2.59561666666667,"us",59,"female","yes_only","white","grad_degree","christianity_protestant","christianity_protestant","teacher",NA,7,"#9be4c0","depressed","feel sad",0,1188,"yes",1,"United States"
"288","us_run_01","us_run_01_8","beetle",2.59561666666667,"us",59,"female","yes_only","white","grad_degree","christianity_protestant","christianity_protestant","teacher",NA,8,"#bae6c8","communicating","communicate with somebody else",0,2972,"yes",1,"United States"
"289","us_run_01","us_run_01_8","beetle",2.59561666666667,"us",59,"female","yes_only","white","grad_degree","christianity_protestant","christianity_protestant","teacher",NA,9,"#84eced","emo_recog","understand how somebody else is feeling",0,3980,"yes",1,"United States"
"290","us_run_01","us_run_01_8","beetle",2.59561666666667,"us",59,"female","yes_only","white","grad_degree","christianity_protestant","christianity_protestant","teacher",NA,10,"#e3dbc8","morality","know what's nice and what's mean",0,5564,"kinda",0.5,"United States"
"291","us_run_01","us_run_01_8","beetle",2.59561666666667,"us",59,"female","yes_only","white","grad_degree","christianity_protestant","christianity_protestant","teacher",NA,11,"#a7dcf9","reasoning","figure out how to do things",0,3084,"yes",1,"United States"
"292","us_run_01","us_run_01_8","beetle",2.59561666666667,"us",59,"female","yes_only","white","grad_degree","christianity_protestant","christianity_protestant","teacher",NA,12,"#e3d3af","remembering","remember things",0,1628,"yes",1,"United States"
"293","us_run_01","us_run_01_8","beetle",2.59561666666667,"us",59,"female","yes_only","white","grad_degree","christianity_protestant","christianity_protestant","teacher",NA,13,"#3eeaef","safe","feel safe",0,1917,"yes",1,"United States"
"294","us_run_01","us_run_01_8","beetle",2.59561666666667,"us",59,"female","yes_only","white","grad_degree","christianity_protestant","christianity_protestant","teacher",NA,14,"#d1e48e","disrespected","get hurt feelings",0,1213,"yes",1,"United States"
"295","us_run_01","us_run_01_8","beetle",2.59561666666667,"us",59,"female","yes_only","white","grad_degree","christianity_protestant","christianity_protestant","teacher",NA,15,"#b4dbe7","choices","make choices",0,1027,"yes",1,"United States"
"296","us_run_01","us_run_01_8","beetle",2.59561666666667,"us",59,"female","yes_only","white","grad_degree","christianity_protestant","christianity_protestant","teacher",NA,16,"#d0e0c8","seeing","see things",0,1132,"yes",1,"United States"
"297","us_run_01","us_run_01_8","beetle",2.59561666666667,"us",59,"female","yes_only","white","grad_degree","christianity_protestant","christianity_protestant","teacher",NA,17,"#cde8e2","self_restraint","have self-control -- like when you stop yourself from doing something you shouldn't do",0,4213,"kinda",0.5,"United States"
"298","us_run_01","us_run_01_8","beetle",2.59561666666667,"us",59,"female","yes_only","white","grad_degree","christianity_protestant","christianity_protestant","teacher",NA,18,"#8cf2c3","embarrassed","feel embarrassed",0,2461,"no",0,"United States"
"299","us_run_01","us_run_01_8","beetle",2.59561666666667,"us",59,"female","yes_only","white","grad_degree","christianity_protestant","christianity_protestant","teacher",NA,19,"#cae5a1","odors","smell things",0,1956,"yes",1,"United States"
"300","us_run_01","us_run_01_8","beetle",2.59561666666667,"us",59,"female","yes_only","white","grad_degree","christianity_protestant","christianity_protestant","teacher",NA,20,"#dee7bc","love","feel love",0,3101,"kinda",0.5,"United States"
"301","us_run_01","us_run_01_8","beetle",2.59561666666667,"us",59,"female","yes_only","white","grad_degree","christianity_protestant","christianity_protestant","teacher",NA,21,"#f0d9a2","pride","feel proud",0,1908,"no",0,"United States"
"302","us_run_01","us_run_01_8","beetle",2.59561666666667,"us",59,"female","yes_only","white","grad_degree","christianity_protestant","christianity_protestant","teacher",NA,22,"#f0d27e","depth","sense whether something is close by or far away",0,2421,"yes",1,"United States"
"303","us_run_01","us_run_01_8","beetle",2.59561666666667,"us",59,"female","yes_only","white","grad_degree","christianity_protestant","christianity_protestant","teacher",NA,23,"#f3d0d9","hungry","get hungry",0,1213,"yes",1,"United States"
"304","us_run_01","us_run_01_8","beetle",2.59561666666667,"us",59,"female","yes_only","white","grad_degree","christianity_protestant","christianity_protestant","teacher",NA,24,"#fdcc93","self_aware","be aware of itself",0,1301,"yes",1,"United States"
"305","us_run_01","us_run_01_8","beetle",2.59561666666667,"us",59,"female","yes_only","white","grad_degree","christianity_protestant","christianity_protestant","teacher",NA,25,"#aceab4","calm","feel calm",0,4181,"kinda",0.5,"United States"
"306","us_run_01","us_run_01_8","beetle",2.59561666666667,"us",59,"female","yes_only","white","grad_degree","christianity_protestant","christianity_protestant","teacher",NA,26,"#d0d9ae","fear","feel scared",0,1877,"yes",1,"United States"
"307","us_run_01","us_run_01_8","beetle",2.59561666666667,"us",59,"female","yes_only","white","grad_degree","christianity_protestant","christianity_protestant","teacher",NA,27,"#64f8f4","angry","get angry",0,2277,"no",0,"United States"
"308","us_run_01","us_run_01_8","beetle",2.59561666666667,"us",59,"female","yes_only","white","grad_degree","christianity_protestant","christianity_protestant","teacher",NA,28,"#a9f2ce","pleasure","feel pleasure -- like when something feels really good",0,2676,"yes",1,"United States"
"309","us_run_01","us_run_01_8","beetle",2.59561666666667,"us",59,"female","yes_only","white","grad_degree","christianity_protestant","christianity_protestant","teacher",NA,29,"#f2e1bc","personality","have a personality -- like when someone is shy and somebody else is silly",0,4611,"no",0,"United States"
"310","us_run_01","us_run_01_8","beetle",2.59561666666667,"us",59,"female","yes_only","white","grad_degree","christianity_protestant","christianity_protestant","teacher",NA,30,"#f3c5fa","sounds","hear sounds",0,1837,"yes",1,"United States"
"311","us_run_01","us_run_01_8","beetle",2.59561666666667,"us",59,"female","yes_only","white","grad_degree","christianity_protestant","christianity_protestant","teacher",NA,31,"#e3df8e","goal","have goals -- like when you're working hard to do something or make something happen",0,3661,"kinda",0.5,"United States"
"312","us_run_01","us_run_01_8","beetle",2.59561666666667,"us",59,"female","yes_only","white","grad_degree","christianity_protestant","christianity_protestant","teacher",NA,32,"#bfd6fa","recognizing","recognize somebody else",0,1956,"yes",1,"United States"
"313","us_run_01","us_run_01_8","beetle",2.59561666666667,"us",59,"female","yes_only","white","grad_degree","christianity_protestant","christianity_protestant","teacher",NA,33,"#d2dcee","guilt","feel guilty",0,1821,"no",0,"United States"
"314","us_run_01","us_run_01_8","beetle",2.59561666666667,"us",59,"female","yes_only","white","grad_degree","christianity_protestant","christianity_protestant","teacher",NA,34,"#79e3f9","conscious","be aware of things",0,1445,"yes",1,"United States"
"315","us_run_01","us_run_01_8","beetle",2.59561666666667,"us",59,"female","yes_only","white","grad_degree","christianity_protestant","christianity_protestant","teacher",NA,35,"#d5d0fa","beliefs","have beliefs -- like when you think something is true",0,2853,"no",0,"United States"
"316","us_run_01","us_run_01_8","beetle",2.59561666666667,"us",59,"female","yes_only","white","grad_degree","christianity_protestant","christianity_protestant","teacher",NA,36,"#fddbd0","temperature","sense temperatures",0,1757,"yes",1,"United States"
"317","us_run_01","us_run_01_8","beetle",2.59561666666667,"us",59,"female","yes_only","white","grad_degree","christianity_protestant","christianity_protestant","teacher",NA,37,"#b5eaa1","tired","feel tired",0,1269,"yes",1,"United States"
"318","us_run_01","us_run_01_8","beetle",2.59561666666667,"us",59,"female","yes_only","white","grad_degree","christianity_protestant","christianity_protestant","teacher",NA,38,"#97eca5","intentions","make plans",0,2741,"kinda",0.5,"United States"
"319","us_run_01","us_run_01_8","beetle",2.59561666666667,"us",59,"female","yes_only","white","grad_degree","christianity_protestant","christianity_protestant","teacher",NA,39,"#ead1ec","desires","have desires -- like when you really want something",0,2956,"no",0,"United States"
"320","us_run_01","us_run_01_8","beetle",2.59561666666667,"us",59,"female","yes_only","white","grad_degree","christianity_protestant","christianity_protestant","teacher",NA,40,"#c2e9f5","computations","do math",0,1716,"no",0,"United States"
"321","us_run_01","us_run_01_9","beetle",2.323,"us",20,"male","yes_only","white","college_some","christianity_catholic","none","Student",NA,1,"#5ef2da","happy","feel happy",0,4681,"kinda",0.5,"United States"
"322","us_run_01","us_run_01_9","beetle",2.323,"us",20,"male","yes_only","white","college_some","christianity_catholic","none","Student",NA,2,"#a7dcf9","self_aware","be aware of itself",0,1710,"kinda",0.5,"United States"
"323","us_run_01","us_run_01_9","beetle",2.323,"us",20,"male","yes_only","white","college_some","christianity_catholic","none","Student",NA,3,"#b4dbe7","fear","feel scared",0,2388,"no",0,"United States"
"324","us_run_01","us_run_01_9","beetle",2.323,"us",20,"male","yes_only","white","college_some","christianity_catholic","none","Student",NA,4,"#d0e0c8","personality","have a personality -- like when someone is shy and somebody else is silly",0,2534,"no",0,"United States"
"325","us_run_01","us_run_01_9","beetle",2.323,"us",20,"male","yes_only","white","college_some","christianity_catholic","none","Student",NA,5,"#9be4c0","calm","feel calm",0,3285,"yes",1,"United States"
"326","us_run_01","us_run_01_9","beetle",2.323,"us",20,"male","yes_only","white","college_some","christianity_catholic","none","Student",NA,6,"#fddbd0","sounds","hear sounds",0,5027,"no",0,"United States"
"327","us_run_01","us_run_01_9","beetle",2.323,"us",20,"male","yes_only","white","college_some","christianity_catholic","none","Student",NA,7,"#f0d9a2","pain","feel pain",0,4428,"yes",1,"United States"
"328","us_run_01","us_run_01_9","beetle",2.323,"us",20,"male","yes_only","white","college_some","christianity_catholic","none","Student",NA,8,"#a9f2ce","nauseated","feel sick -- like when you feel like you might throw up",0,2153,"no",0,"United States"
"329","us_run_01","us_run_01_9","beetle",2.323,"us",20,"male","yes_only","white","college_some","christianity_catholic","none","Student",NA,9,"#dedfa2","safe","feel safe",0,2325,"yes",1,"United States"
"330","us_run_01","us_run_01_9","beetle",2.323,"us",20,"male","yes_only","white","college_some","christianity_catholic","none","Student",NA,10,"#cae5a1","depressed","feel sad",0,1028,"no",0,"United States"
"331","us_run_01","us_run_01_9","beetle",2.323,"us",20,"male","yes_only","white","college_some","christianity_catholic","none","Student",NA,11,"#c2e9f5","odors","smell things",0,2589,"yes",1,"United States"
"332","us_run_01","us_run_01_9","beetle",2.323,"us",20,"male","yes_only","white","college_some","christianity_catholic","none","Student",NA,12,"#f2cdb9","angry","get angry",0,1379,"no",0,"United States"
"333","us_run_01","us_run_01_9","beetle",2.323,"us",20,"male","yes_only","white","college_some","christianity_catholic","none","Student",NA,13,"#bfd6fa","seeing","see things",0,3670,"yes",1,"United States"
"334","us_run_01","us_run_01_9","beetle",2.323,"us",20,"male","yes_only","white","college_some","christianity_catholic","none","Student",NA,14,"#c3e5b5","communicating","communicate with somebody else",0,1878,"no",0,"United States"
"335","us_run_01","us_run_01_9","beetle",2.323,"us",20,"male","yes_only","white","college_some","christianity_catholic","none","Student",NA,15,"#f3d0d9","free_will","decide what to do",0,1808,"yes",1,"United States"
"336","us_run_01","us_run_01_9","beetle",2.323,"us",20,"male","yes_only","white","college_some","christianity_catholic","none","Student",NA,16,"#bae6c8","emo_recog","understand how somebody else is feeling",0,4433,"no",0,"United States"
"337","us_run_01","us_run_01_9","beetle",2.323,"us",20,"male","yes_only","white","college_some","christianity_catholic","none","Student",NA,17,"#e3df8e","morality","know what's nice and what's mean",0,1750,"no",0,"United States"
"338","us_run_01","us_run_01_9","beetle",2.323,"us",20,"male","yes_only","white","college_some","christianity_catholic","none","Student",NA,18,"#84eced","remembering","remember things",0,1151,"no",0,"United States"
"339","us_run_01","us_run_01_9","beetle",2.323,"us",20,"male","yes_only","white","college_some","christianity_catholic","none","Student",NA,19,"#bce98d","conscious","be aware of things",0,1414,"yes",1,"United States"
"340","us_run_01","us_run_01_9","beetle",2.323,"us",20,"male","yes_only","white","college_some","christianity_catholic","none","Student",NA,20,"#cde8e2","self_restraint","have self-control -- like when you stop yourself from doing something you shouldn't do",0,4632,"no",0,"United States"
"341","us_run_01","us_run_01_9","beetle",2.323,"us",20,"male","yes_only","white","college_some","christianity_catholic","none","Student",NA,21,"#fdcc93","computations","do math",0,1055,"no",0,"United States"
"342","us_run_01","us_run_01_9","beetle",2.323,"us",20,"male","yes_only","white","college_some","christianity_catholic","none","Student",NA,22,"#d2dcee","desires","have desires -- like when you really want something",0,2001,"no",0,"United States"
"343","us_run_01","us_run_01_9","beetle",2.323,"us",20,"male","yes_only","white","college_some","christianity_catholic","none","Student",NA,23,"#8cf2c3","love","feel love",0,947,"no",0,"United States"
"344","us_run_01","us_run_01_9","beetle",2.323,"us",20,"male","yes_only","white","college_some","christianity_catholic","none","Student",NA,24,"#f0d27e","depth","sense whether something is close by or far away",0,3260,"kinda",0.5,"United States"
"345","us_run_01","us_run_01_9","beetle",2.323,"us",20,"male","yes_only","white","college_some","christianity_catholic","none","Student",NA,25,"#64f8f4","disrespected","get hurt feelings",0,1049,"no",0,"United States"
"346","us_run_01","us_run_01_9","beetle",2.323,"us",20,"male","yes_only","white","college_some","christianity_catholic","none","Student",NA,26,"#fde096","joy","feel joy",0,914,"no",0,"United States"
"347","us_run_01","us_run_01_9","beetle",2.323,"us",20,"male","yes_only","white","college_some","christianity_catholic","none","Student",NA,27,"#b5eaa1","pleasure","feel pleasure -- like when something feels really good",0,2059,"no",0,"United States"
"348","us_run_01","us_run_01_9","beetle",2.323,"us",20,"male","yes_only","white","college_some","christianity_catholic","none","Student",NA,28,"#3eeaef","choices","make choices",0,1607,"yes",1,"United States"
"349","us_run_01","us_run_01_9","beetle",2.323,"us",20,"male","yes_only","white","college_some","christianity_catholic","none","Student",NA,29,"#d0d9ae","guilt","feel guilty",0,4260,"no",0,"United States"
"350","us_run_01","us_run_01_9","beetle",2.323,"us",20,"male","yes_only","white","college_some","christianity_catholic","none","Student",NA,30,"#94ebda","thoughts","have thoughts",0,5585,"kinda",0.5,"United States"
"351","us_run_01","us_run_01_9","beetle",2.323,"us",20,"male","yes_only","white","college_some","christianity_catholic","none","Student",NA,31,"#ead1ec","recognizing","recognize somebody else",0,2381,"no",0,"United States"
"352","us_run_01","us_run_01_9","beetle",2.323,"us",20,"male","yes_only","white","college_some","christianity_catholic","none","Student",NA,32,"#97eca5","intentions","make plans",0,5853,"no",0,"United States"
"353","us_run_01","us_run_01_9","beetle",2.323,"us",20,"male","yes_only","white","college_some","christianity_catholic","none","Student",NA,33,"#79e3f9","temperature","sense temperatures",0,2037,"no",0,"United States"
"354","us_run_01","us_run_01_9","beetle",2.323,"us",20,"male","yes_only","white","college_some","christianity_catholic","none","Student",NA,34,"#aceab4","tired","feel tired",0,1256,"no",0,"United States"
"355","us_run_01","us_run_01_9","beetle",2.323,"us",20,"male","yes_only","white","college_some","christianity_catholic","none","Student",NA,35,"#d1e48e","reasoning","figure out how to do things",0,2801,"kinda",0.5,"United States"
"356","us_run_01","us_run_01_9","beetle",2.323,"us",20,"male","yes_only","white","college_some","christianity_catholic","none","Student",NA,36,"#a9e7e4","beliefs","have beliefs -- like when you think something is true",0,1722,"no",0,"United States"
"357","us_run_01","us_run_01_9","beetle",2.323,"us",20,"male","yes_only","white","college_some","christianity_catholic","none","Student",NA,37,"#dee7bc","goal","have goals -- like when you're working hard to do something or make something happen",0,2443,"no",0,"United States"
"358","us_run_01","us_run_01_9","beetle",2.323,"us",20,"male","yes_only","white","college_some","christianity_catholic","none","Student",NA,38,"#e3d3af","hungry","get hungry",0,1466,"kinda",0.5,"United States"
"359","us_run_01","us_run_01_9","beetle",2.323,"us",20,"male","yes_only","white","college_some","christianity_catholic","none","Student",NA,39,"#f3c5fa","pride","feel proud",0,1166,"no",0,"United States"
"360","us_run_01","us_run_01_9","beetle",2.323,"us",20,"male","yes_only","white","college_some","christianity_catholic","none","Student",NA,40,"#f2e1bc","embarrassed","feel embarrassed",0,907,"no",0,"United States"
"361","us_run_01b","us_run_01b_1","robot",1.96085,"us",23,"male","yes_only","white","hs_diploma","christianity_protestant","christianity_protestant","Retail Clerk",NA,1,"#dedfa2","reasoning","figure out how to do things",5181,6568,"no",0,"USA"
"362","us_run_01b","us_run_01b_1","robot",1.96085,"us",23,"male","yes_only","white","hs_diploma","christianity_protestant","christianity_protestant","Retail Clerk",NA,2,"#d1e48e","remembering","remember things",1,2143,"yes",1,"USA"
"363","us_run_01b","us_run_01b_1","robot",1.96085,"us",23,"male","yes_only","white","hs_diploma","christianity_protestant","christianity_protestant","Retail Clerk",NA,3,"#b5eaa1","intentions","make plans",0,1429,"no",0,"USA"
"364","us_run_01b","us_run_01b_1","robot",1.96085,"us",23,"male","yes_only","white","hs_diploma","christianity_protestant","christianity_protestant","Retail Clerk",NA,4,"#bae6c8","morality","know what's nice and what's mean",0,1630,"no",0,"USA"
"365","us_run_01b","us_run_01b_1","robot",1.96085,"us",23,"male","yes_only","white","hs_diploma","christianity_protestant","christianity_protestant","Retail Clerk",NA,5,"#94ebda","angry","get angry",0,2303,"no",0,"USA"
"366","us_run_01b","us_run_01b_1","robot",1.96085,"us",23,"male","yes_only","white","hs_diploma","christianity_protestant","christianity_protestant","Retail Clerk",NA,6,"#84eced","self_restraint","have self-control -- like when you stop yourself from doing something you shouldn't do",0,2171,"no",0,"USA"
